submission_id,age,block_number,blockorder,condition,display_size,education,expected,experiment_duration,experiment_end_time,experiment_start_time,gender,image,languages,qud,question,response,response_time,target,target_color,trial_number
3392,30,0,CDCD,feature,15,Higher degree,positive,580541,1648540538385,1648539957844,male,images/card_061.png,German,,,positive,2913,S,green,0
3392,30,0,CDCD,feature,30,Higher degree,negative,580541,1648540538385,1648539957844,male,images/card_124.png,German,,,negative,1887,-,-,1
3392,30,0,CDCD,feature,1,Higher degree,negative,580541,1648540538385,1648539957844,male,images/card_098.png,German,,,negative,1046,-,-,2
3392,30,0,CDCD,feature,30,Higher degree,negative,580541,1648540538385,1648539957844,male,images/card_121.png,German,,,negative,1468,-,-,3
3392,30,0,CDCD,feature,1,Higher degree,negative,580541,1648540538385,1648539957844,male,images/card_097.png,German,,,negative,751,-,-,4
3392,30,0,CDCD,feature,5,Higher degree,positive,580541,1648540538385,1648539957844,male,images/card_043.png,German,,,positive,837,T,blue,5
3392,30,0,CDCD,feature,15,Higher degree,negative,580541,1648540538385,1648539957844,male,images/card_114.png,German,,,negative,997,-,-,6
3392,30,0,CDCD,feature,5,Higher degree,negative,580541,1648540538385,1648539957844,male,images/card_107.png,German,,,negative,658,-,-,7
3392,30,0,CDCD,feature,30,Higher degree,positive,580541,1648540538385,1648539957844,male,images/card_048.png,German,,,positive,751,T,blue,8
3392,30,0,CDCD,feature,15,Higher degree,negative,580541,1648540538385,1648539957844,male,images/card_115.png,German,,,negative,728,-,-,9
3392,30,0,CDCD,feature,1,Higher degree,positive,580541,1648540538385,1648539957844,male,images/card_049.png,German,,,positive,838,S,brown,10
3392,30,0,CDCD,feature,1,Higher degree,positive,580541,1648540538385,1648539957844,male,images/card_057.png,German,,,positive,648,S,green,11
3392,30,0,CDCD,feature,30,Higher degree,positive,580541,1648540538385,1648539957844,male,images/card_039.png,German,,,positive,742,X,blue,12
3392,30,0,CDCD,feature,1,Higher degree,negative,580541,1648540538385,1648539957844,male,images/card_099.png,German,,,negative,624,-,-,13
3392,30,0,CDCD,feature,15,Higher degree,positive,580541,1648540538385,1648539957844,male,images/card_045.png,German,,,positive,671,T,blue,14
3392,30,0,CDCD,feature,5,Higher degree,negative,580541,1648540538385,1648539957844,male,images/card_105.png,German,,,negative,682,-,-,15
3392,30,0,CDCD,feature,15,Higher degree,positive,580541,1648540538385,1648539957844,male,images/card_053.png,German,,,positive,570,S,brown,16
3392,30,0,CDCD,feature,30,Higher degree,positive,580541,1648540538385,1648539957844,male,images/card_055.png,German,,,negative,555,S,brown,17
3392,30,0,CDCD,feature,1,Higher degree,positive,580541,1648540538385,1648539957844,male,images/card_033.png,German,,,positive,775,X,blue,18
3392,30,0,CDCD,feature,15,Higher degree,positive,580541,1648540538385,1648539957844,male,images/card_037.png,German,,,positive,592,X,blue,19
3392,30,0,CDCD,feature,15,Higher degree,negative,580541,1648540538385,1648539957844,male,images/card_113.png,German,,,negative,864,-,-,20
3392,30,0,CDCD,feature,1,Higher degree,positive,580541,1648540538385,1648539957844,male,images/card_041.png,German,,,positive,623,T,blue,21
3392,30,0,CDCD,feature,1,Higher degree,negative,580541,1648540538385,1648539957844,male,images/card_100.png,German,,,positive,657,-,-,22
3392,30,0,CDCD,feature,30,Higher degree,positive,580541,1648540538385,1648539957844,male,images/card_063.png,German,,,positive,747,S,green,23
3392,30,0,CDCD,feature,30,Higher degree,negative,580541,1648540538385,1648539957844,male,images/card_122.png,German,,,negative,1351,-,-,24
3392,30,0,CDCD,feature,5,Higher degree,positive,580541,1648540538385,1648539957844,male,images/card_059.png,German,,,positive,598,S,green,25
3392,30,0,CDCD,feature,5,Higher degree,negative,580541,1648540538385,1648539957844,male,images/card_106.png,German,,,negative,1016,-,-,26
3392,30,0,CDCD,feature,5,Higher degree,negative,580541,1648540538385,1648539957844,male,images/card_108.png,German,,,negative,955,-,-,27
3392,30,0,CDCD,feature,15,Higher degree,negative,580541,1648540538385,1648539957844,male,images/card_116.png,German,,,negative,819,-,-,28
3392,30,0,CDCD,feature,5,Higher degree,positive,580541,1648540538385,1648539957844,male,images/card_051.png,German,,,positive,541,S,brown,29
3392,30,0,CDCD,feature,30,Higher degree,negative,580541,1648540538385,1648539957844,male,images/card_123.png,German,,,negative,1228,-,-,30
3392,30,0,CDCD,feature,5,Higher degree,positive,580541,1648540538385,1648539957844,male,images/card_035.png,German,,,positive,627,X,blue,31
3392,30,1,CDCD,conjunction,1,Higher degree,positive,580541,1648540538385,1648539957844,male,images/card_004.png,German,,,positive,560,T,green,0
3392,30,1,CDCD,conjunction,5,Higher degree,negative,580541,1648540538385,1648539957844,male,images/card_074.png,German,,,negative,805,-,-,1
3392,30,1,CDCD,conjunction,30,Higher degree,positive,580541,1648540538385,1648539957844,male,images/card_027.png,German,,,negative,1163,T,green,2
3392,30,1,CDCD,conjunction,15,Higher degree,positive,580541,1648540538385,1648539957844,male,images/card_018.png,German,,,positive,750,T,green,3
3392,30,1,CDCD,conjunction,5,Higher degree,positive,580541,1648540538385,1648539957844,male,images/card_012.png,German,,,negative,748,T,green,4
3392,30,1,CDCD,conjunction,5,Higher degree,negative,580541,1648540538385,1648539957844,male,images/card_073.png,German,,,negative,769,-,-,5
3392,30,1,CDCD,conjunction,30,Higher degree,negative,580541,1648540538385,1648539957844,male,images/card_090.png,German,,,negative,2339,-,-,6
3392,30,1,CDCD,conjunction,1,Higher degree,negative,580541,1648540538385,1648539957844,male,images/card_067.png,German,,,negative,730,-,-,7
3392,30,1,CDCD,conjunction,30,Higher degree,negative,580541,1648540538385,1648539957844,male,images/card_092.png,German,,,negative,1677,-,-,8
3392,30,1,CDCD,conjunction,1,Higher degree,negative,580541,1648540538385,1648539957844,male,images/card_066.png,German,,,negative,702,-,-,9
3392,30,1,CDCD,conjunction,1,Higher degree,negative,580541,1648540538385,1648539957844,male,images/card_065.png,German,,,negative,671,-,-,10
3392,30,1,CDCD,conjunction,5,Higher degree,positive,580541,1648540538385,1648539957844,male,images/card_009.png,German,,,positive,673,T,green,11
3392,30,1,CDCD,conjunction,30,Higher degree,positive,580541,1648540538385,1648539957844,male,images/card_026.png,German,,,negative,1029,T,green,12
3392,30,1,CDCD,conjunction,30,Higher degree,positive,580541,1648540538385,1648539957844,male,images/card_028.png,German,,,positive,1215,T,green,13
3392,30,1,CDCD,conjunction,15,Higher degree,negative,580541,1648540538385,1648539957844,male,images/card_082.png,German,,,negative,1050,-,-,14
3392,30,1,CDCD,conjunction,30,Higher degree,negative,580541,1648540538385,1648539957844,male,images/card_089.png,German,,,negative,1947,-,-,15
3392,30,1,CDCD,conjunction,30,Higher degree,negative,580541,1648540538385,1648539957844,male,images/card_091.png,German,,,negative,1661,-,-,16
3392,30,1,CDCD,conjunction,15,Higher degree,positive,580541,1648540538385,1648539957844,male,images/card_019.png,German,,,positive,819,T,green,17
3392,30,1,CDCD,conjunction,1,Higher degree,positive,580541,1648540538385,1648539957844,male,images/card_002.png,German,,,positive,551,T,green,18
3392,30,1,CDCD,conjunction,1,Higher degree,positive,580541,1648540538385,1648539957844,male,images/card_003.png,German,,,positive,600,T,green,19
3392,30,1,CDCD,conjunction,15,Higher degree,negative,580541,1648540538385,1648539957844,male,images/card_083.png,German,,,negative,1165,-,-,20
3392,30,1,CDCD,conjunction,1,Higher degree,negative,580541,1648540538385,1648539957844,male,images/card_068.png,German,,,negative,847,-,-,21
3392,30,1,CDCD,conjunction,5,Higher degree,positive,580541,1648540538385,1648539957844,male,images/card_011.png,German,,,positive,811,T,green,22
3392,30,1,CDCD,conjunction,15,Higher degree,positive,580541,1648540538385,1648539957844,male,images/card_017.png,German,,,positive,821,T,green,23
3392,30,1,CDCD,conjunction,30,Higher degree,positive,580541,1648540538385,1648539957844,male,images/card_025.png,German,,,positive,1115,T,green,24
3392,30,1,CDCD,conjunction,1,Higher degree,positive,580541,1648540538385,1648539957844,male,images/card_001.png,German,,,positive,597,T,green,25
3392,30,1,CDCD,conjunction,15,Higher degree,positive,580541,1648540538385,1648539957844,male,images/card_020.png,German,,,positive,1030,T,green,26
3392,30,1,CDCD,conjunction,5,Higher degree,positive,580541,1648540538385,1648539957844,male,images/card_010.png,German,,,positive,645,T,green,27
3392,30,1,CDCD,conjunction,5,Higher degree,negative,580541,1648540538385,1648539957844,male,images/card_076.png,German,,,negative,748,-,,28
3392,30,1,CDCD,conjunction,15,Higher degree,negative,580541,1648540538385,1648539957844,male,images/card_084.png,German,,,negative,1091,-,-,29
3392,30,1,CDCD,conjunction,15,Higher degree,negative,580541,1648540538385,1648539957844,male,images/card_081.png,German,,,negative,1376,-,-,30
3392,30,1,CDCD,conjunction,5,Higher degree,negative,580541,1648540538385,1648539957844,male,images/card_075.png,German,,,negative,913,-,-,31
3392,30,2,CDCD,feature,1,Higher degree,positive,580541,1648540538385,1648539957844,male,images/card_058.png,German,,,positive,590,S,green,0
3392,30,2,CDCD,feature,30,Higher degree,positive,580541,1648540538385,1648539957844,male,images/card_056.png,German,,,positive,1044,S,brown,1
3392,30,2,CDCD,feature,5,Higher degree,positive,580541,1648540538385,1648539957844,male,images/card_036.png,German,,,positive,747,X,blue,2
3392,30,2,CDCD,feature,15,Higher degree,positive,580541,1648540538385,1648539957844,male,images/card_038.png,German,,,positive,656,X,blue,3
3392,30,2,CDCD,feature,1,Higher degree,negative,580541,1648540538385,1648539957844,male,images/card_101.png,German,,,negative,747,-,-,4
3392,30,2,CDCD,feature,1,Higher degree,negative,580541,1648540538385,1648539957844,male,images/card_104.png,German,,,negative,639,-,-,5
3392,30,2,CDCD,feature,5,Higher degree,negative,580541,1648540538385,1648539957844,male,images/card_112.png,German,,,negative,882,-,-,6
3392,30,2,CDCD,feature,1,Higher degree,negative,580541,1648540538385,1648539957844,male,images/card_102.png,German,,,negative,585,-,-,7
3392,30,2,CDCD,feature,30,Higher degree,positive,580541,1648540538385,1648539957844,male,images/card_064.png,German,,,positive,1352,S,green,8
3392,30,2,CDCD,feature,5,Higher degree,positive,580541,1648540538385,1648539957844,male,images/card_043.png,German,,,positive,568,T,blue,9
3392,30,2,CDCD,feature,1,Higher degree,negative,580541,1648540538385,1648539957844,male,images/card_103.png,German,,,negative,537,-,-,10
3392,30,2,CDCD,feature,30,Higher degree,negative,580541,1648540538385,1648539957844,male,images/card_125.png,German,,,negative,1318,-,-,11
3392,30,2,CDCD,feature,15,Higher degree,positive,580541,1648540538385,1648539957844,male,images/card_045.png,German,,,positive,550,T,blue,12
3392,30,2,CDCD,feature,30,Higher degree,negative,580541,1648540538385,1648539957844,male,images/card_128.png,German,,,negative,1309,-,-,13
3392,30,2,CDCD,feature,15,Higher degree,positive,580541,1648540538385,1648539957844,male,images/card_062.png,German,,,positive,644,S,green,14
3392,30,2,CDCD,feature,5,Higher degree,positive,580541,1648540538385,1648539957844,male,images/card_060.png,German,,,positive,787,S,green,15
3392,30,2,CDCD,feature,15,Higher degree,positive,580541,1648540538385,1648539957844,male,images/card_054.png,German,,,positive,627,S,brown,16
3392,30,2,CDCD,feature,15,Higher degree,negative,580541,1648540538385,1648539957844,male,images/card_120.png,German,,,negative,746,-,-,17
3392,30,2,CDCD,feature,5,Higher degree,negative,580541,1648540538385,1648539957844,male,images/card_111.png,German,,,negative,643,-,-,18
3392,30,2,CDCD,feature,5,Higher degree,negative,580541,1648540538385,1648539957844,male,images/card_109.png,German,,,negative,705,-,-,19
3392,30,2,CDCD,feature,15,Higher degree,negative,580541,1648540538385,1648539957844,male,images/card_119.png,German,,,negative,715,-,-,20
3392,30,2,CDCD,feature,1,Higher degree,positive,580541,1648540538385,1648539957844,male,images/card_041.png,German,,,positive,504,T,blue,21
3392,30,2,CDCD,feature,5,Higher degree,negative,580541,1648540538385,1648539957844,male,images/card_110.png,German,,,negative,869,-,-,22
3392,30,2,CDCD,feature,5,Higher degree,positive,580541,1648540538385,1648539957844,male,images/card_052.png,German,,,positive,654,S,brown,23
3392,30,2,CDCD,feature,30,Higher degree,positive,580541,1648540538385,1648539957844,male,images/card_040.png,German,,,positive,670,X,blue,24
3392,30,2,CDCD,feature,30,Higher degree,negative,580541,1648540538385,1648539957844,male,images/card_126.png,German,,,negative,851,-,-,25
3392,30,2,CDCD,feature,15,Higher degree,negative,580541,1648540538385,1648539957844,male,images/card_120.png,German,,,negative,806,-,-,26
3392,30,2,CDCD,feature,1,Higher degree,positive,580541,1648540538385,1648539957844,male,images/card_034.png,German,,,positive,667,X,blue,27
3392,30,2,CDCD,feature,15,Higher degree,negative,580541,1648540538385,1648539957844,male,images/card_119.png,German,,,negative,647,-,-,28
3392,30,2,CDCD,feature,30,Higher degree,negative,580541,1648540538385,1648539957844,male,images/card_127.png,German,,,negative,1001,-,-,29
3392,30,2,CDCD,feature,1,Higher degree,positive,580541,1648540538385,1648539957844,male,images/card_050.png,German,,,positive,596,S,brown,30
3392,30,2,CDCD,feature,30,Higher degree,positive,580541,1648540538385,1648539957844,male,images/card_047.png,German,,,positive,639,T,blue,31
3392,30,3,CDCD,conjunction,15,Higher degree,positive,580541,1648540538385,1648539957844,male,images/card_021.png,German,,,positive,875,T,green,0
3392,30,3,CDCD,conjunction,15,Higher degree,positive,580541,1648540538385,1648539957844,male,images/card_024.png,German,,,positive,911,T,green,1
3392,30,3,CDCD,conjunction,1,Higher degree,positive,580541,1648540538385,1648539957844,male,images/card_007.png,German,,,positive,568,T,green,2
3392,30,3,CDCD,conjunction,1,Higher degree,positive,580541,1648540538385,1648539957844,male,images/card_008.png,German,,,positive,639,T,green,3
3392,30,3,CDCD,conjunction,1,Higher degree,negative,580541,1648540538385,1648539957844,male,images/card_070.png,German,,,positive,587,-,-,4
3392,30,3,CDCD,conjunction,1,Higher degree,negative,580541,1648540538385,1648539957844,male,images/card_069.png,German,,,negative,643,-,-,5
3392,30,3,CDCD,conjunction,30,Higher degree,positive,580541,1648540538385,1648539957844,male,images/card_029.png,German,,,positive,734,T,green,6
3392,30,3,CDCD,conjunction,5,Higher degree,positive,580541,1648540538385,1648539957844,male,images/card_014.png,German,,,positive,577,T,green,7
3392,30,3,CDCD,conjunction,30,Higher degree,positive,580541,1648540538385,1648539957844,male,images/card_031.png,German,,,positive,732,T,green,8
3392,30,3,CDCD,conjunction,30,Higher degree,negative,580541,1648540538385,1648539957844,male,images/card_093.png,German,,,negative,1284,-,-,9
3392,30,3,CDCD,conjunction,15,Higher degree,positive,580541,1648540538385,1648539957844,male,images/card_022.png,German,,,positive,738,T,green,10
3392,30,3,CDCD,conjunction,5,Higher degree,positive,580541,1648540538385,1648539957844,male,images/card_016.png,German,,,positive,685,T,green,11
3392,30,3,CDCD,conjunction,30,Higher degree,negative,580541,1648540538385,1648539957844,male,images/card_094.png,German,,,negative,1309,-,-,12
3392,30,3,CDCD,conjunction,5,Higher degree,negative,580541,1648540538385,1648539957844,male,images/card_080.png,German,,,negative,762,-,-,13
3392,30,3,CDCD,conjunction,30,Higher degree,positive,580541,1648540538385,1648539957844,male,images/card_030.png,German,,,positive,910,T,green,14
3392,30,3,CDCD,conjunction,15,Higher degree,negative,580541,1648540538385,1648539957844,male,images/card_085.png,German,,,negative,950,-,-,15
3392,30,3,CDCD,conjunction,1,Higher degree,positive,580541,1648540538385,1648539957844,male,images/card_006.png,German,,,positive,568,T,green,16
3392,30,3,CDCD,conjunction,30,Higher degree,negative,580541,1648540538385,1648539957844,male,images/card_096.png,German,,,negative,1404,-,-,17
3392,30,3,CDCD,conjunction,30,Higher degree,negative,580541,1648540538385,1648539957844,male,images/card_095.png,German,,,negative,1216,-,-,18
3392,30,3,CDCD,conjunction,1,Higher degree,negative,580541,1648540538385,1648539957844,male,images/card_071.png,German,,,negative,718,-,-,19
3392,30,3,CDCD,conjunction,5,Higher degree,negative,580541,1648540538385,1648539957844,male,images/card_079.png,German,,,negative,701,-,-,20
3392,30,3,CDCD,conjunction,15,Higher degree,negative,580541,1648540538385,1648539957844,male,images/card_086.png,German,,,negative,805,-,-,21
3392,30,3,CDCD,conjunction,5,Higher degree,positive,580541,1648540538385,1648539957844,male,images/card_013.png,German,,,positive,579,T,green,22
3392,30,3,CDCD,conjunction,5,Higher degree,negative,580541,1648540538385,1648539957844,male,images/card_078.png,German,,,negative,688,-,-,23
3392,30,3,CDCD,conjunction,5,Higher degree,negative,580541,1648540538385,1648539957844,male,images/card_077.png,German,,,negative,762,-,-,24
3392,30,3,CDCD,conjunction,1,Higher degree,negative,580541,1648540538385,1648539957844,male,images/card_072.png,German,,,negative,609,-,-,25
3392,30,3,CDCD,conjunction,15,Higher degree,negative,580541,1648540538385,1648539957844,male,images/card_087.png,German,,,negative,901,-,-,26
3392,30,3,CDCD,conjunction,5,Higher degree,positive,580541,1648540538385,1648539957844,male,images/card_015.png,German,,,positive,656,T,green,27
3392,30,3,CDCD,conjunction,15,Higher degree,negative,580541,1648540538385,1648539957844,male,images/card_088.png,German,,,negative,746,-,-,28
3392,30,3,CDCD,conjunction,15,Higher degree,positive,580541,1648540538385,1648539957844,male,images/card_023.png,German,,,positive,701,T,green,29
3392,30,3,CDCD,conjunction,1,Higher degree,positive,580541,1648540538385,1648539957844,male,images/card_005.png,German,,,positive,566,T,green,30
3392,30,3,CDCD,conjunction,30,Higher degree,positive,580541,1648540538385,1648539957844,male,images/card_032.png,German,,,positive,1481,T,green,31
3391,32,0,CDCD,feature,5,Graduated Highschool,positive,558060,1648539169236,1648538611176,female,images/card_060.png,german,,,negative,7645,S,green,0
3391,32,0,CDCD,feature,30,Graduated Highschool,positive,558060,1648539169236,1648538611176,female,images/card_040.png,german,,,positive,2309,X,blue,1
3391,32,0,CDCD,feature,5,Graduated Highschool,negative,558060,1648539169236,1648538611176,female,images/card_111.png,german,,,negative,1688,-,-,2
3391,32,0,CDCD,feature,15,Graduated Highschool,negative,558060,1648539169236,1648538611176,female,images/card_120.png,german,,,negative,1049,-,-,3
3391,32,0,CDCD,feature,1,Graduated Highschool,positive,558060,1648539169236,1648538611176,female,images/card_034.png,german,,,positive,803,X,blue,4
3391,32,0,CDCD,feature,15,Graduated Highschool,negative,558060,1648539169236,1648538611176,female,images/card_120.png,german,,,negative,617,-,-,5
3391,32,0,CDCD,feature,1,Graduated Highschool,negative,558060,1648539169236,1648538611176,female,images/card_103.png,german,,,negative,632,-,-,6
3391,32,0,CDCD,feature,30,Graduated Highschool,negative,558060,1648539169236,1648538611176,female,images/card_125.png,german,,,negative,707,-,-,7
3391,32,0,CDCD,feature,5,Graduated Highschool,negative,558060,1648539169236,1648538611176,female,images/card_109.png,german,,,negative,608,-,-,8
3391,32,0,CDCD,feature,5,Graduated Highschool,negative,558060,1648539169236,1648538611176,female,images/card_110.png,german,,,negative,493,-,-,9
3391,32,0,CDCD,feature,30,Graduated Highschool,positive,558060,1648539169236,1648538611176,female,images/card_064.png,german,,,negative,485,S,green,10
3391,32,0,CDCD,feature,30,Graduated Highschool,negative,558060,1648539169236,1648538611176,female,images/card_127.png,german,,,negative,644,-,-,11
3391,32,0,CDCD,feature,5,Graduated Highschool,positive,558060,1648539169236,1648538611176,female,images/card_052.png,german,,,negative,803,S,brown,12
3391,32,0,CDCD,feature,15,Graduated Highschool,positive,558060,1648539169236,1648538611176,female,images/card_054.png,german,,,negative,615,S,brown,13
3391,32,0,CDCD,feature,5,Graduated Highschool,positive,558060,1648539169236,1648538611176,female,images/card_043.png,german,,,positive,807,T,blue,14
3391,32,0,CDCD,feature,30,Graduated Highschool,positive,558060,1648539169236,1648538611176,female,images/card_056.png,german,,,negative,935,S,brown,15
3391,32,0,CDCD,feature,30,Graduated Highschool,negative,558060,1648539169236,1648538611176,female,images/card_128.png,german,,,negative,956,-,-,16
3391,32,0,CDCD,feature,5,Graduated Highschool,negative,558060,1648539169236,1648538611176,female,images/card_112.png,german,,,negative,880,-,-,17
3391,32,0,CDCD,feature,1,Graduated Highschool,negative,558060,1648539169236,1648538611176,female,images/card_101.png,german,,,negative,836,-,-,18
3391,32,0,CDCD,feature,1,Graduated Highschool,positive,558060,1648539169236,1648538611176,female,images/card_058.png,german,,,negative,730,S,green,19
3391,32,0,CDCD,feature,15,Graduated Highschool,positive,558060,1648539169236,1648538611176,female,images/card_062.png,german,,,negative,713,S,green,20
3391,32,0,CDCD,feature,1,Graduated Highschool,positive,558060,1648539169236,1648538611176,female,images/card_041.png,german,,,positive,805,T,blue,21
3391,32,0,CDCD,feature,5,Graduated Highschool,positive,558060,1648539169236,1648538611176,female,images/card_036.png,german,,,positive,841,X,blue,22
3391,32,0,CDCD,feature,30,Graduated Highschool,negative,558060,1648539169236,1648538611176,female,images/card_126.png,german,,,negative,1022,-,-,23
3391,32,0,CDCD,feature,15,Graduated Highschool,positive,558060,1648539169236,1648538611176,female,images/card_045.png,german,,,positive,774,T,blue,24
3391,32,0,CDCD,feature,1,Graduated Highschool,negative,558060,1648539169236,1648538611176,female,images/card_102.png,german,,,negative,740,-,-,25
3391,32,0,CDCD,feature,15,Graduated Highschool,positive,558060,1648539169236,1648538611176,female,images/card_038.png,german,,,positive,721,X,blue,26
3391,32,0,CDCD,feature,30,Graduated Highschool,positive,558060,1648539169236,1648538611176,female,images/card_047.png,german,,,positive,686,T,blue,27
3391,32,0,CDCD,feature,15,Graduated Highschool,negative,558060,1648539169236,1648538611176,female,images/card_119.png,german,,,negative,840,-,-,28
3391,32,0,CDCD,feature,15,Graduated Highschool,negative,558060,1648539169236,1648538611176,female,images/card_119.png,german,,,negative,533,-,-,29
3391,32,0,CDCD,feature,1,Graduated Highschool,positive,558060,1648539169236,1648538611176,female,images/card_050.png,german,,,negative,654,S,brown,30
3391,32,0,CDCD,feature,1,Graduated Highschool,negative,558060,1648539169236,1648538611176,female,images/card_104.png,german,,,negative,943,-,-,31
3391,32,1,CDCD,conjunction,1,Graduated Highschool,positive,558060,1648539169236,1648538611176,female,images/card_005.png,german,,,positive,2082,T,green,0
3391,32,1,CDCD,conjunction,15,Graduated Highschool,positive,558060,1648539169236,1648538611176,female,images/card_022.png,german,,,positive,1326,T,green,1
3391,32,1,CDCD,conjunction,1,Graduated Highschool,negative,558060,1648539169236,1648538611176,female,images/card_070.png,german,,,negative,924,-,-,2
3391,32,1,CDCD,conjunction,15,Graduated Highschool,positive,558060,1648539169236,1648538611176,female,images/card_023.png,german,,,positive,1214,T,green,3
3391,32,1,CDCD,conjunction,5,Graduated Highschool,positive,558060,1648539169236,1648538611176,female,images/card_013.png,german,,,positive,789,T,green,4
3391,32,1,CDCD,conjunction,5,Graduated Highschool,negative,558060,1648539169236,1648538611176,female,images/card_080.png,german,,,negative,924,-,-,5
3391,32,1,CDCD,conjunction,30,Graduated Highschool,negative,558060,1648539169236,1648538611176,female,images/card_094.png,german,,,negative,2806,-,-,6
3391,32,1,CDCD,conjunction,15,Graduated Highschool,negative,558060,1648539169236,1648538611176,female,images/card_086.png,german,,,negative,1234,-,-,7
3391,32,1,CDCD,conjunction,30,Graduated Highschool,negative,558060,1648539169236,1648538611176,female,images/card_093.png,german,,,negative,1841,-,-,8
3391,32,1,CDCD,conjunction,1,Graduated Highschool,negative,558060,1648539169236,1648538611176,female,images/card_072.png,german,,,negative,1109,-,-,9
3391,32,1,CDCD,conjunction,15,Graduated Highschool,negative,558060,1648539169236,1648538611176,female,images/card_087.png,german,,,negative,1531,-,-,10
3391,32,1,CDCD,conjunction,5,Graduated Highschool,positive,558060,1648539169236,1648538611176,female,images/card_016.png,german,,,positive,1099,T,green,11
3391,32,1,CDCD,conjunction,30,Graduated Highschool,negative,558060,1648539169236,1648538611176,female,images/card_095.png,german,,,negative,1272,-,-,12
3391,32,1,CDCD,conjunction,15,Graduated Highschool,negative,558060,1648539169236,1648538611176,female,images/card_085.png,german,,,negative,1016,-,-,13
3391,32,1,CDCD,conjunction,15,Graduated Highschool,positive,558060,1648539169236,1648538611176,female,images/card_021.png,german,,,positive,1000,T,green,14
3391,32,1,CDCD,conjunction,1,Graduated Highschool,positive,558060,1648539169236,1648538611176,female,images/card_007.png,german,,,positive,842,T,green,15
3391,32,1,CDCD,conjunction,1,Graduated Highschool,negative,558060,1648539169236,1648538611176,female,images/card_071.png,german,,,negative,816,-,-,16
3391,32,1,CDCD,conjunction,30,Graduated Highschool,positive,558060,1648539169236,1648538611176,female,images/card_029.png,german,,,positive,1394,T,green,17
3391,32,1,CDCD,conjunction,15,Graduated Highschool,positive,558060,1648539169236,1648538611176,female,images/card_024.png,german,,,positive,1965,T,green,18
3391,32,1,CDCD,conjunction,1,Graduated Highschool,negative,558060,1648539169236,1648538611176,female,images/card_069.png,german,,,negative,1369,-,-,19
3391,32,1,CDCD,conjunction,30,Graduated Highschool,positive,558060,1648539169236,1648538611176,female,images/card_031.png,german,,,positive,1145,T,green,20
3391,32,1,CDCD,conjunction,1,Graduated Highschool,positive,558060,1648539169236,1648538611176,female,images/card_006.png,german,,,positive,1018,T,green,21
3391,32,1,CDCD,conjunction,30,Graduated Highschool,positive,558060,1648539169236,1648538611176,female,images/card_032.png,german,,,negative,1526,T,green,22
3391,32,1,CDCD,conjunction,5,Graduated Highschool,negative,558060,1648539169236,1648538611176,female,images/card_078.png,german,,,negative,1069,-,-,23
3391,32,1,CDCD,conjunction,30,Graduated Highschool,positive,558060,1648539169236,1648538611176,female,images/card_030.png,german,,,positive,1197,T,green,24
3391,32,1,CDCD,conjunction,15,Graduated Highschool,negative,558060,1648539169236,1648538611176,female,images/card_088.png,german,,,negative,1158,-,-,25
3391,32,1,CDCD,conjunction,5,Graduated Highschool,positive,558060,1648539169236,1648538611176,female,images/card_015.png,german,,,negative,912,T,green,26
3391,32,1,CDCD,conjunction,5,Graduated Highschool,negative,558060,1648539169236,1648538611176,female,images/card_079.png,german,,,negative,1079,-,-,27
3391,32,1,CDCD,conjunction,1,Graduated Highschool,positive,558060,1648539169236,1648538611176,female,images/card_008.png,german,,,positive,809,T,green,28
3391,32,1,CDCD,conjunction,30,Graduated Highschool,negative,558060,1648539169236,1648538611176,female,images/card_096.png,german,,,negative,1682,-,-,29
3391,32,1,CDCD,conjunction,5,Graduated Highschool,positive,558060,1648539169236,1648538611176,female,images/card_014.png,german,,,positive,885,T,green,30
3391,32,1,CDCD,conjunction,5,Graduated Highschool,negative,558060,1648539169236,1648538611176,female,images/card_077.png,german,,,negative,970,-,-,31
3391,32,2,CDCD,feature,5,Graduated Highschool,positive,558060,1648539169236,1648538611176,female,images/card_059.png,german,,,positive,1249,S,green,0
3391,32,2,CDCD,feature,15,Graduated Highschool,negative,558060,1648539169236,1648538611176,female,images/card_113.png,german,,,negative,1526,-,-,1
3391,32,2,CDCD,feature,30,Graduated Highschool,positive,558060,1648539169236,1648538611176,female,images/card_063.png,german,,,positive,974,S,green,2
3391,32,2,CDCD,feature,5,Graduated Highschool,negative,558060,1648539169236,1648538611176,female,images/card_106.png,german,,,negative,895,-,-,3
3391,32,2,CDCD,feature,1,Graduated Highschool,negative,558060,1648539169236,1648538611176,female,images/card_098.png,german,,,negative,1117,-,-,4
3391,32,2,CDCD,feature,1,Graduated Highschool,positive,558060,1648539169236,1648538611176,female,images/card_033.png,german,,,positive,1042,X,blue,5
3391,32,2,CDCD,feature,5,Graduated Highschool,positive,558060,1648539169236,1648538611176,female,images/card_051.png,german,,,positive,1044,S,brown,6
3391,32,2,CDCD,feature,15,Graduated Highschool,negative,558060,1648539169236,1648538611176,female,images/card_115.png,german,,,negative,1190,-,-,7
3391,32,2,CDCD,feature,30,Graduated Highschool,negative,558060,1648539169236,1648538611176,female,images/card_122.png,german,,,negative,1617,-,-,8
3391,32,2,CDCD,feature,1,Graduated Highschool,positive,558060,1648539169236,1648538611176,female,images/card_057.png,german,,,positive,700,S,green,9
3391,32,2,CDCD,feature,30,Graduated Highschool,negative,558060,1648539169236,1648538611176,female,images/card_124.png,german,,,negative,1267,-,-,10
3391,32,2,CDCD,feature,1,Graduated Highschool,negative,558060,1648539169236,1648538611176,female,images/card_100.png,german,,,negative,801,-,-,11
3391,32,2,CDCD,feature,5,Graduated Highschool,positive,558060,1648539169236,1648538611176,female,images/card_035.png,german,,,positive,731,X,blue,12
3391,32,2,CDCD,feature,30,Graduated Highschool,positive,558060,1648539169236,1648538611176,female,images/card_039.png,german,,,positive,754,X,blue,13
3391,32,2,CDCD,feature,15,Graduated Highschool,positive,558060,1648539169236,1648538611176,female,images/card_037.png,german,,,positive,822,X,blue,14
3391,32,2,CDCD,feature,5,Graduated Highschool,negative,558060,1648539169236,1648538611176,female,images/card_105.png,german,,,negative,788,-,-,15
3391,32,2,CDCD,feature,15,Graduated Highschool,positive,558060,1648539169236,1648538611176,female,images/card_053.png,german,,,positive,723,S,brown,16
3391,32,2,CDCD,feature,15,Graduated Highschool,negative,558060,1648539169236,1648538611176,female,images/card_114.png,german,,,negative,881,-,-,17
3391,32,2,CDCD,feature,1,Graduated Highschool,positive,558060,1648539169236,1648538611176,female,images/card_041.png,german,,,positive,596,T,blue,18
3391,32,2,CDCD,feature,5,Graduated Highschool,negative,558060,1648539169236,1648538611176,female,images/card_108.png,german,,,negative,658,-,-,19
3391,32,2,CDCD,feature,15,Graduated Highschool,negative,558060,1648539169236,1648538611176,female,images/card_116.png,german,,,negative,728,-,-,20
3391,32,2,CDCD,feature,15,Graduated Highschool,positive,558060,1648539169236,1648538611176,female,images/card_061.png,german,,,positive,728,S,green,21
3391,32,2,CDCD,feature,30,Graduated Highschool,positive,558060,1648539169236,1648538611176,female,images/card_048.png,german,,,positive,728,T,blue,22
3391,32,2,CDCD,feature,30,Graduated Highschool,positive,558060,1648539169236,1648538611176,female,images/card_055.png,german,,,negative,643,S,brown,23
3391,32,2,CDCD,feature,1,Graduated Highschool,positive,558060,1648539169236,1648538611176,female,images/card_049.png,german,,,positive,667,S,brown,24
3391,32,2,CDCD,feature,5,Graduated Highschool,negative,558060,1648539169236,1648538611176,female,images/card_107.png,german,,,negative,874,-,-,25
3391,32,2,CDCD,feature,15,Graduated Highschool,positive,558060,1648539169236,1648538611176,female,images/card_045.png,german,,,positive,713,T,blue,26
3391,32,2,CDCD,feature,1,Graduated Highschool,negative,558060,1648539169236,1648538611176,female,images/card_097.png,german,,,negative,909,-,-,27
3391,32,2,CDCD,feature,30,Graduated Highschool,negative,558060,1648539169236,1648538611176,female,images/card_121.png,german,,,negative,953,-,-,28
3391,32,2,CDCD,feature,5,Graduated Highschool,positive,558060,1648539169236,1648538611176,female,images/card_043.png,german,,,positive,615,T,blue,29
3391,32,2,CDCD,feature,30,Graduated Highschool,negative,558060,1648539169236,1648538611176,female,images/card_123.png,german,,,negative,831,-,-,30
3391,32,2,CDCD,feature,1,Graduated Highschool,negative,558060,1648539169236,1648538611176,female,images/card_099.png,german,,,negative,795,-,-,31
3391,32,3,CDCD,conjunction,1,Graduated Highschool,positive,558060,1648539169236,1648538611176,female,images/card_001.png,german,,,positive,774,T,green,0
3391,32,3,CDCD,conjunction,1,Graduated Highschool,positive,558060,1648539169236,1648538611176,female,images/card_004.png,german,,,positive,656,T,green,1
3391,32,3,CDCD,conjunction,5,Graduated Highschool,negative,558060,1648539169236,1648538611176,female,images/card_075.png,german,,,negative,931,-,-,2
3391,32,3,CDCD,conjunction,5,Graduated Highschool,negative,558060,1648539169236,1648538611176,female,images/card_076.png,german,,,negative,824,-,,3
3391,32,3,CDCD,conjunction,30,Graduated Highschool,negative,558060,1648539169236,1648538611176,female,images/card_092.png,german,,,negative,1511,-,-,4
3391,32,3,CDCD,conjunction,5,Graduated Highschool,positive,558060,1648539169236,1648538611176,female,images/card_010.png,german,,,positive,872,T,green,5
3391,32,3,CDCD,conjunction,5,Graduated Highschool,positive,558060,1648539169236,1648538611176,female,images/card_009.png,german,,,positive,896,T,green,6
3391,32,3,CDCD,conjunction,15,Graduated Highschool,positive,558060,1648539169236,1648538611176,female,images/card_018.png,german,,,positive,1189,T,green,7
3391,32,3,CDCD,conjunction,30,Graduated Highschool,positive,558060,1648539169236,1648538611176,female,images/card_025.png,german,,,positive,1388,T,green,8
3391,32,3,CDCD,conjunction,1,Graduated Highschool,positive,558060,1648539169236,1648538611176,female,images/card_003.png,german,,,positive,602,T,green,9
3391,32,3,CDCD,conjunction,1,Graduated Highschool,negative,558060,1648539169236,1648538611176,female,images/card_066.png,german,,,positive,585,-,-,10
3391,32,3,CDCD,conjunction,30,Graduated Highschool,negative,558060,1648539169236,1648538611176,female,images/card_090.png,german,,,negative,1348,-,-,11
3391,32,3,CDCD,conjunction,30,Graduated Highschool,positive,558060,1648539169236,1648538611176,female,images/card_026.png,german,,,negative,1375,T,green,12
3391,32,3,CDCD,conjunction,15,Graduated Highschool,negative,558060,1648539169236,1648538611176,female,images/card_084.png,german,,,negative,1224,-,-,13
3391,32,3,CDCD,conjunction,1,Graduated Highschool,positive,558060,1648539169236,1648538611176,female,images/card_002.png,german,,,positive,623,T,green,14
3391,32,3,CDCD,conjunction,5,Graduated Highschool,positive,558060,1648539169236,1648538611176,female,images/card_012.png,german,,,positive,1111,T,green,15
3391,32,3,CDCD,conjunction,1,Graduated Highschool,negative,558060,1648539169236,1648538611176,female,images/card_067.png,german,,,negative,678,-,-,16
3391,32,3,CDCD,conjunction,15,Graduated Highschool,negative,558060,1648539169236,1648538611176,female,images/card_083.png,german,,,negative,1236,-,-,17
3391,32,3,CDCD,conjunction,30,Graduated Highschool,positive,558060,1648539169236,1648538611176,female,images/card_028.png,german,,,positive,1165,T,green,18
3391,32,3,CDCD,conjunction,1,Graduated Highschool,negative,558060,1648539169236,1648538611176,female,images/card_065.png,german,,,negative,909,-,-,19
3391,32,3,CDCD,conjunction,15,Graduated Highschool,positive,558060,1648539169236,1648538611176,female,images/card_017.png,german,,,positive,893,T,green,20
3391,32,3,CDCD,conjunction,30,Graduated Highschool,negative,558060,1648539169236,1648538611176,female,images/card_089.png,german,,,negative,1676,-,-,21
3391,32,3,CDCD,conjunction,15,Graduated Highschool,negative,558060,1648539169236,1648538611176,female,images/card_082.png,german,,,negative,1337,-,-,22
3391,32,3,CDCD,conjunction,1,Graduated Highschool,negative,558060,1648539169236,1648538611176,female,images/card_068.png,german,,,negative,823,-,-,23
3391,32,3,CDCD,conjunction,5,Graduated Highschool,negative,558060,1648539169236,1648538611176,female,images/card_073.png,german,,,negative,889,-,-,24
3391,32,3,CDCD,conjunction,5,Graduated Highschool,positive,558060,1648539169236,1648538611176,female,images/card_011.png,german,,,positive,941,T,green,25
3391,32,3,CDCD,conjunction,30,Graduated Highschool,positive,558060,1648539169236,1648538611176,female,images/card_027.png,german,,,positive,782,T,green,26
3391,32,3,CDCD,conjunction,15,Graduated Highschool,positive,558060,1648539169236,1648538611176,female,images/card_019.png,german,,,positive,938,T,green,27
3391,32,3,CDCD,conjunction,5,Graduated Highschool,negative,558060,1648539169236,1648538611176,female,images/card_074.png,german,,,negative,786,-,-,28
3391,32,3,CDCD,conjunction,30,Graduated Highschool,negative,558060,1648539169236,1648538611176,female,images/card_091.png,german,,,negative,1291,-,-,29
3391,32,3,CDCD,conjunction,15,Graduated Highschool,negative,558060,1648539169236,1648538611176,female,images/card_081.png,german,,,negative,992,-,-,30
3391,32,3,CDCD,conjunction,15,Graduated Highschool,positive,558060,1648539169236,1648538611176,female,images/card_020.png,german,,,positive,902,T,green,31
3390,32,0,CDCD,feature,5,Graduated College,positive,604538,1648538034979,1648537430441,female,images/card_035.png,German; English,,,positive,1921,X,blue,0
3390,32,0,CDCD,feature,30,Graduated College,negative,604538,1648538034979,1648537430441,female,images/card_122.png,German; English,,,negative,74,-,-,1
3390,32,0,CDCD,feature,30,Graduated College,positive,604538,1648538034979,1648537430441,female,images/card_055.png,German; English,,,positive,1412,S,brown,2
3390,32,0,CDCD,feature,5,Graduated College,negative,604538,1648538034979,1648537430441,female,images/card_108.png,German; English,,,positive,2317,-,-,3
3390,32,0,CDCD,feature,30,Graduated College,negative,604538,1648538034979,1648537430441,female,images/card_124.png,German; English,,,negative,293,-,-,4
3390,32,0,CDCD,feature,1,Graduated College,positive,604538,1648538034979,1648537430441,female,images/card_033.png,German; English,,,positive,984,X,blue,5
3390,32,0,CDCD,feature,15,Graduated College,positive,604538,1648538034979,1648537430441,female,images/card_045.png,German; English,,,positive,1496,T,blue,6
3390,32,0,CDCD,feature,5,Graduated College,positive,604538,1648538034979,1648537430441,female,images/card_051.png,German; English,,,negative,1788,S,brown,7
3390,32,0,CDCD,feature,5,Graduated College,positive,604538,1648538034979,1648537430441,female,images/card_059.png,German; English,,,positive,1331,S,green,8
3390,32,0,CDCD,feature,15,Graduated College,positive,604538,1648538034979,1648537430441,female,images/card_053.png,German; English,,,positive,885,S,brown,9
3390,32,0,CDCD,feature,30,Graduated College,negative,604538,1648538034979,1648537430441,female,images/card_121.png,German; English,,,negative,1543,-,-,10
3390,32,0,CDCD,feature,30,Graduated College,positive,604538,1648538034979,1648537430441,female,images/card_039.png,German; English,,,positive,1127,X,blue,11
3390,32,0,CDCD,feature,30,Graduated College,positive,604538,1648538034979,1648537430441,female,images/card_048.png,German; English,,,positive,840,T,blue,12
3390,32,0,CDCD,feature,1,Graduated College,positive,604538,1648538034979,1648537430441,female,images/card_049.png,German; English,,,negative,993,S,brown,13
3390,32,0,CDCD,feature,15,Graduated College,negative,604538,1648538034979,1648537430441,female,images/card_115.png,German; English,,,negative,2067,-,-,14
3390,32,0,CDCD,feature,15,Graduated College,negative,604538,1648538034979,1648537430441,female,images/card_116.png,German; English,,,negative,1408,-,-,15
3390,32,0,CDCD,feature,30,Graduated College,negative,604538,1648538034979,1648537430441,female,images/card_123.png,German; English,,,negative,1123,-,-,16
3390,32,0,CDCD,feature,5,Graduated College,negative,604538,1648538034979,1648537430441,female,images/card_106.png,German; English,,,negative,916,-,-,17
3390,32,0,CDCD,feature,1,Graduated College,negative,604538,1648538034979,1648537430441,female,images/card_098.png,German; English,,,negative,1000,-,-,18
3390,32,0,CDCD,feature,15,Graduated College,negative,604538,1648538034979,1648537430441,female,images/card_114.png,German; English,,,negative,753,-,-,19
3390,32,0,CDCD,feature,1,Graduated College,negative,604538,1648538034979,1648537430441,female,images/card_100.png,German; English,,,negative,890,-,-,20
3390,32,0,CDCD,feature,30,Graduated College,positive,604538,1648538034979,1648537430441,female,images/card_063.png,German; English,,,negative,908,S,green,21
3390,32,0,CDCD,feature,15,Graduated College,negative,604538,1648538034979,1648537430441,female,images/card_113.png,German; English,,,negative,932,-,-,22
3390,32,0,CDCD,feature,1,Graduated College,negative,604538,1648538034979,1648537430441,female,images/card_099.png,German; English,,,negative,817,-,-,23
3390,32,0,CDCD,feature,5,Graduated College,negative,604538,1648538034979,1648537430441,female,images/card_105.png,German; English,,,negative,997,-,-,24
3390,32,0,CDCD,feature,5,Graduated College,positive,604538,1648538034979,1648537430441,female,images/card_043.png,German; English,,,positive,957,T,blue,25
3390,32,0,CDCD,feature,15,Graduated College,positive,604538,1648538034979,1648537430441,female,images/card_061.png,German; English,,,positive,1084,S,green,26
3390,32,0,CDCD,feature,1,Graduated College,positive,604538,1648538034979,1648537430441,female,images/card_041.png,German; English,,,positive,1072,T,blue,27
3390,32,0,CDCD,feature,1,Graduated College,positive,604538,1648538034979,1648537430441,female,images/card_057.png,German; English,,,positive,754,S,green,28
3390,32,0,CDCD,feature,1,Graduated College,negative,604538,1648538034979,1648537430441,female,images/card_097.png,German; English,,,negative,1504,-,-,29
3390,32,0,CDCD,feature,15,Graduated College,positive,604538,1648538034979,1648537430441,female,images/card_037.png,German; English,,,positive,895,X,blue,30
3390,32,0,CDCD,feature,5,Graduated College,negative,604538,1648538034979,1648537430441,female,images/card_107.png,German; English,,,negative,1287,-,-,31
3390,32,1,CDCD,conjunction,5,Graduated College,negative,604538,1648538034979,1648537430441,female,images/card_078.png,German; English,,,negative,1288,-,-,0
3390,32,1,CDCD,conjunction,30,Graduated College,negative,604538,1648538034979,1648537430441,female,images/card_094.png,German; English,,,negative,2173,-,-,1
3390,32,1,CDCD,conjunction,15,Graduated College,positive,604538,1648538034979,1648537430441,female,images/card_021.png,German; English,,,positive,1212,T,green,2
3390,32,1,CDCD,conjunction,30,Graduated College,negative,604538,1648538034979,1648537430441,female,images/card_093.png,German; English,,,negative,1960,-,-,3
3390,32,1,CDCD,conjunction,5,Graduated College,negative,604538,1648538034979,1648537430441,female,images/card_080.png,German; English,,,negative,1360,-,-,4
3390,32,1,CDCD,conjunction,15,Graduated College,negative,604538,1648538034979,1648537430441,female,images/card_085.png,German; English,,,negative,1836,-,-,5
3390,32,1,CDCD,conjunction,30,Graduated College,positive,604538,1648538034979,1648537430441,female,images/card_030.png,German; English,,,positive,1490,T,green,6
3390,32,1,CDCD,conjunction,5,Graduated College,negative,604538,1648538034979,1648537430441,female,images/card_079.png,German; English,,,negative,912,-,-,7
3390,32,1,CDCD,conjunction,15,Graduated College,negative,604538,1648538034979,1648537430441,female,images/card_088.png,German; English,,,negative,1175,-,-,8
3390,32,1,CDCD,conjunction,30,Graduated College,positive,604538,1648538034979,1648537430441,female,images/card_031.png,German; English,,,positive,1370,T,green,9
3390,32,1,CDCD,conjunction,15,Graduated College,negative,604538,1648538034979,1648537430441,female,images/card_086.png,German; English,,,negative,1387,-,-,10
3390,32,1,CDCD,conjunction,15,Graduated College,negative,604538,1648538034979,1648537430441,female,images/card_087.png,German; English,,,negative,1462,-,-,11
3390,32,1,CDCD,conjunction,1,Graduated College,negative,604538,1648538034979,1648537430441,female,images/card_070.png,German; English,,,positive,845,-,-,12
3390,32,1,CDCD,conjunction,1,Graduated College,positive,604538,1648538034979,1648537430441,female,images/card_005.png,German; English,,,positive,955,T,green,13
3390,32,1,CDCD,conjunction,1,Graduated College,negative,604538,1648538034979,1648537430441,female,images/card_069.png,German; English,,,negative,1087,-,-,14
3390,32,1,CDCD,conjunction,30,Graduated College,positive,604538,1648538034979,1648537430441,female,images/card_029.png,German; English,,,positive,1299,T,green,15
3390,32,1,CDCD,conjunction,5,Graduated College,positive,604538,1648538034979,1648537430441,female,images/card_015.png,German; English,,,positive,1012,T,green,16
3390,32,1,CDCD,conjunction,1,Graduated College,positive,604538,1648538034979,1648537430441,female,images/card_008.png,German; English,,,positive,699,T,green,17
3390,32,1,CDCD,conjunction,15,Graduated College,positive,604538,1648538034979,1648537430441,female,images/card_023.png,German; English,,,positive,1078,T,green,18
3390,32,1,CDCD,conjunction,1,Graduated College,positive,604538,1648538034979,1648537430441,female,images/card_006.png,German; English,,,positive,680,T,green,19
3390,32,1,CDCD,conjunction,30,Graduated College,negative,604538,1648538034979,1648537430441,female,images/card_096.png,German; English,,,negative,1588,-,-,20
3390,32,1,CDCD,conjunction,15,Graduated College,positive,604538,1648538034979,1648537430441,female,images/card_022.png,German; English,,,positive,1100,T,green,21
3390,32,1,CDCD,conjunction,15,Graduated College,positive,604538,1648538034979,1648537430441,female,images/card_024.png,German; English,,,positive,909,T,green,22
3390,32,1,CDCD,conjunction,5,Graduated College,positive,604538,1648538034979,1648537430441,female,images/card_014.png,German; English,,,positive,799,T,green,23
3390,32,1,CDCD,conjunction,5,Graduated College,positive,604538,1648538034979,1648537430441,female,images/card_016.png,German; English,,,positive,889,T,green,24
3390,32,1,CDCD,conjunction,30,Graduated College,positive,604538,1648538034979,1648537430441,female,images/card_032.png,German; English,,,positive,1506,T,green,25
3390,32,1,CDCD,conjunction,1,Graduated College,negative,604538,1648538034979,1648537430441,female,images/card_071.png,German; English,,,negative,832,-,-,26
3390,32,1,CDCD,conjunction,5,Graduated College,negative,604538,1648538034979,1648537430441,female,images/card_077.png,German; English,,,negative,1019,-,-,27
3390,32,1,CDCD,conjunction,1,Graduated College,negative,604538,1648538034979,1648537430441,female,images/card_072.png,German; English,,,negative,854,-,-,28
3390,32,1,CDCD,conjunction,1,Graduated College,positive,604538,1648538034979,1648537430441,female,images/card_007.png,German; English,,,positive,678,T,green,29
3390,32,1,CDCD,conjunction,5,Graduated College,positive,604538,1648538034979,1648537430441,female,images/card_013.png,German; English,,,positive,852,T,green,30
3390,32,1,CDCD,conjunction,30,Graduated College,negative,604538,1648538034979,1648537430441,female,images/card_095.png,German; English,,,negative,2627,-,-,31
3390,32,2,CDCD,feature,30,Graduated College,negative,604538,1648538034979,1648537430441,female,images/card_127.png,German; English,,,negative,2006,-,-,0
3390,32,2,CDCD,feature,30,Graduated College,negative,604538,1648538034979,1648537430441,female,images/card_125.png,German; English,,,negative,1782,-,-,1
3390,32,2,CDCD,feature,15,Graduated College,positive,604538,1648538034979,1648537430441,female,images/card_045.png,German; English,,,positive,687,T,blue,2
3390,32,2,CDCD,feature,1,Graduated College,negative,604538,1648538034979,1648537430441,female,images/card_104.png,German; English,,,negative,1223,-,-,3
3390,32,2,CDCD,feature,1,Graduated College,positive,604538,1648538034979,1648537430441,female,images/card_034.png,German; English,,,positive,846,X,blue,4
3390,32,2,CDCD,feature,1,Graduated College,positive,604538,1648538034979,1648537430441,female,images/card_050.png,German; English,,,negative,849,S,brown,5
3390,32,2,CDCD,feature,5,Graduated College,negative,604538,1648538034979,1648537430441,female,images/card_110.png,German; English,,,negative,1205,-,-,6
3390,32,2,CDCD,feature,30,Graduated College,positive,604538,1648538034979,1648537430441,female,images/card_047.png,German; English,,,positive,829,T,blue,7
3390,32,2,CDCD,feature,1,Graduated College,negative,604538,1648538034979,1648537430441,female,images/card_101.png,German; English,,,negative,907,-,-,8
3390,32,2,CDCD,feature,15,Graduated College,negative,604538,1648538034979,1648537430441,female,images/card_120.png,German; English,,,negative,1493,-,-,9
3390,32,2,CDCD,feature,1,Graduated College,positive,604538,1648538034979,1648537430441,female,images/card_058.png,German; English,,,positive,953,S,green,10
3390,32,2,CDCD,feature,15,Graduated College,negative,604538,1648538034979,1648537430441,female,images/card_119.png,German; English,,,negative,1285,-,-,11
3390,32,2,CDCD,feature,30,Graduated College,positive,604538,1648538034979,1648537430441,female,images/card_064.png,German; English,,,positive,1092,S,green,12
3390,32,2,CDCD,feature,30,Graduated College,positive,604538,1648538034979,1648537430441,female,images/card_040.png,German; English,,,negative,950,X,blue,13
3390,32,2,CDCD,feature,5,Graduated College,positive,604538,1648538034979,1648537430441,female,images/card_060.png,German; English,,,positive,924,S,green,14
3390,32,2,CDCD,feature,15,Graduated College,negative,604538,1648538034979,1648537430441,female,images/card_120.png,German; English,,,negative,1264,-,-,15
3390,32,2,CDCD,feature,15,Graduated College,positive,604538,1648538034979,1648537430441,female,images/card_038.png,German; English,,,positive,900,X,blue,16
3390,32,2,CDCD,feature,15,Graduated College,negative,604538,1648538034979,1648537430441,female,images/card_119.png,German; English,,,negative,1232,-,-,17
3390,32,2,CDCD,feature,5,Graduated College,positive,604538,1648538034979,1648537430441,female,images/card_043.png,German; English,,,positive,721,T,blue,18
3390,32,2,CDCD,feature,5,Graduated College,negative,604538,1648538034979,1648537430441,female,images/card_109.png,German; English,,,negative,1147,-,-,19
3390,32,2,CDCD,feature,5,Graduated College,positive,604538,1648538034979,1648537430441,female,images/card_052.png,German; English,,,positive,721,S,brown,20
3390,32,2,CDCD,feature,15,Graduated College,positive,604538,1648538034979,1648537430441,female,images/card_054.png,German; English,,,positive,940,S,brown,21
3390,32,2,CDCD,feature,30,Graduated College,negative,604538,1648538034979,1648537430441,female,images/card_128.png,German; English,,,negative,1515,-,-,22
3390,32,2,CDCD,feature,1,Graduated College,positive,604538,1648538034979,1648537430441,female,images/card_041.png,German; English,,,positive,762,T,blue,23
3390,32,2,CDCD,feature,30,Graduated College,negative,604538,1648538034979,1648537430441,female,images/card_126.png,German; English,,,negative,2102,-,-,24
3390,32,2,CDCD,feature,15,Graduated College,positive,604538,1648538034979,1648537430441,female,images/card_062.png,German; English,,,positive,1028,S,green,25
3390,32,2,CDCD,feature,5,Graduated College,negative,604538,1648538034979,1648537430441,female,images/card_112.png,German; English,,,negative,1005,-,-,26
3390,32,2,CDCD,feature,1,Graduated College,negative,604538,1648538034979,1648537430441,female,images/card_103.png,German; English,,,negative,1077,-,-,27
3390,32,2,CDCD,feature,30,Graduated College,positive,604538,1648538034979,1648537430441,female,images/card_056.png,German; English,,,positive,993,S,brown,28
3390,32,2,CDCD,feature,5,Graduated College,positive,604538,1648538034979,1648537430441,female,images/card_036.png,German; English,,,positive,821,X,blue,29
3390,32,2,CDCD,feature,1,Graduated College,negative,604538,1648538034979,1648537430441,female,images/card_102.png,German; English,,,negative,905,-,-,30
3390,32,2,CDCD,feature,5,Graduated College,negative,604538,1648538034979,1648537430441,female,images/card_111.png,German; English,,,negative,879,-,-,31
3390,32,3,CDCD,conjunction,1,Graduated College,positive,604538,1648538034979,1648537430441,female,images/card_001.png,German; English,,,positive,821,T,green,0
3390,32,3,CDCD,conjunction,5,Graduated College,negative,604538,1648538034979,1648537430441,female,images/card_075.png,German; English,,,negative,1086,-,-,1
3390,32,3,CDCD,conjunction,15,Graduated College,positive,604538,1648538034979,1648537430441,female,images/card_019.png,German; English,,,positive,1041,T,green,2
3390,32,3,CDCD,conjunction,5,Graduated College,negative,604538,1648538034979,1648537430441,female,images/card_074.png,German; English,,,negative,1074,-,-,3
3390,32,3,CDCD,conjunction,1,Graduated College,negative,604538,1648538034979,1648537430441,female,images/card_065.png,German; English,,,negative,1006,-,-,4
3390,32,3,CDCD,conjunction,30,Graduated College,negative,604538,1648538034979,1648537430441,female,images/card_092.png,German; English,,,negative,2303,-,-,5
3390,32,3,CDCD,conjunction,30,Graduated College,positive,604538,1648538034979,1648537430441,female,images/card_027.png,German; English,,,negative,2052,T,green,6
3390,32,3,CDCD,conjunction,30,Graduated College,negative,604538,1648538034979,1648537430441,female,images/card_089.png,German; English,,,negative,1877,-,-,7
3390,32,3,CDCD,conjunction,30,Graduated College,positive,604538,1648538034979,1648537430441,female,images/card_026.png,German; English,,,negative,2079,T,green,8
3390,32,3,CDCD,conjunction,1,Graduated College,negative,604538,1648538034979,1648537430441,female,images/card_068.png,German; English,,,negative,948,-,-,9
3390,32,3,CDCD,conjunction,5,Graduated College,negative,604538,1648538034979,1648537430441,female,images/card_073.png,German; English,,,negative,1263,-,-,10
3390,32,3,CDCD,conjunction,1,Graduated College,positive,604538,1648538034979,1648537430441,female,images/card_003.png,German; English,,,positive,789,T,green,11
3390,32,3,CDCD,conjunction,5,Graduated College,positive,604538,1648538034979,1648537430441,female,images/card_010.png,German; English,,,positive,1148,T,green,12
3390,32,3,CDCD,conjunction,15,Graduated College,negative,604538,1648538034979,1648537430441,female,images/card_081.png,German; English,,,negative,1604,-,-,13
3390,32,3,CDCD,conjunction,15,Graduated College,negative,604538,1648538034979,1648537430441,female,images/card_084.png,German; English,,,negative,1243,-,-,14
3390,32,3,CDCD,conjunction,1,Graduated College,negative,604538,1648538034979,1648537430441,female,images/card_067.png,German; English,,,negative,855,-,-,15
3390,32,3,CDCD,conjunction,5,Graduated College,positive,604538,1648538034979,1648537430441,female,images/card_011.png,German; English,,,positive,1217,T,green,16
3390,32,3,CDCD,conjunction,1,Graduated College,negative,604538,1648538034979,1648537430441,female,images/card_066.png,German; English,,,negative,788,-,-,17
3390,32,3,CDCD,conjunction,5,Graduated College,positive,604538,1648538034979,1648537430441,female,images/card_012.png,German; English,,,positive,1238,T,green,18
3390,32,3,CDCD,conjunction,1,Graduated College,positive,604538,1648538034979,1648537430441,female,images/card_004.png,German; English,,,positive,766,T,green,19
3390,32,3,CDCD,conjunction,15,Graduated College,positive,604538,1648538034979,1648537430441,female,images/card_017.png,German; English,,,positive,1107,T,green,20
3390,32,3,CDCD,conjunction,30,Graduated College,positive,604538,1648538034979,1648537430441,female,images/card_025.png,German; English,,,positive,1206,T,green,21
3390,32,3,CDCD,conjunction,30,Graduated College,positive,604538,1648538034979,1648537430441,female,images/card_028.png,German; English,,,positive,1770,T,green,22
3390,32,3,CDCD,conjunction,5,Graduated College,negative,604538,1648538034979,1648537430441,female,images/card_076.png,German; English,,,negative,965,-,,23
3390,32,3,CDCD,conjunction,15,Graduated College,positive,604538,1648538034979,1648537430441,female,images/card_018.png,German; English,,,positive,1191,T,green,24
3390,32,3,CDCD,conjunction,15,Graduated College,negative,604538,1648538034979,1648537430441,female,images/card_083.png,German; English,,,negative,1387,-,-,25
3390,32,3,CDCD,conjunction,15,Graduated College,negative,604538,1648538034979,1648537430441,female,images/card_082.png,German; English,,,negative,1365,-,-,26
3390,32,3,CDCD,conjunction,15,Graduated College,positive,604538,1648538034979,1648537430441,female,images/card_020.png,German; English,,,positive,893,T,green,27
3390,32,3,CDCD,conjunction,1,Graduated College,positive,604538,1648538034979,1648537430441,female,images/card_002.png,German; English,,,positive,690,T,green,28
3390,32,3,CDCD,conjunction,5,Graduated College,positive,604538,1648538034979,1648537430441,female,images/card_009.png,German; English,,,positive,830,T,green,29
3390,32,3,CDCD,conjunction,30,Graduated College,negative,604538,1648538034979,1648537430441,female,images/card_091.png,German; English,,,negative,1893,-,-,30
3390,32,3,CDCD,conjunction,30,Graduated College,negative,604538,1648538034979,1648537430441,female,images/card_090.png,German; English,,,negative,1815,-,-,31
3389,29,0,DCDC,conjunction,15,Higher degree,positive,529295,1648537805768,1648537276473,female,images/card_024.png,"German, English, Norwegian, Spanish",,,positive,3164,T,green,0
3389,29,0,DCDC,conjunction,5,Higher degree,positive,529295,1648537805768,1648537276473,female,images/card_014.png,"German, English, Norwegian, Spanish",,,positive,1450,T,green,1
3389,29,0,DCDC,conjunction,5,Higher degree,negative,529295,1648537805768,1648537276473,female,images/card_078.png,"German, English, Norwegian, Spanish",,,negative,1591,-,-,2
3389,29,0,DCDC,conjunction,1,Higher degree,negative,529295,1648537805768,1648537276473,female,images/card_071.png,"German, English, Norwegian, Spanish",,,negative,1092,-,-,3
3389,29,0,DCDC,conjunction,5,Higher degree,positive,529295,1648537805768,1648537276473,female,images/card_015.png,"German, English, Norwegian, Spanish",,,positive,910,T,green,4
3389,29,0,DCDC,conjunction,30,Higher degree,positive,529295,1648537805768,1648537276473,female,images/card_029.png,"German, English, Norwegian, Spanish",,,positive,1189,T,green,5
3389,29,0,DCDC,conjunction,30,Higher degree,positive,529295,1648537805768,1648537276473,female,images/card_031.png,"German, English, Norwegian, Spanish",,,positive,1611,T,green,6
3389,29,0,DCDC,conjunction,15,Higher degree,positive,529295,1648537805768,1648537276473,female,images/card_021.png,"German, English, Norwegian, Spanish",,,positive,965,T,green,7
3389,29,0,DCDC,conjunction,5,Higher degree,negative,529295,1648537805768,1648537276473,female,images/card_079.png,"German, English, Norwegian, Spanish",,,negative,960,-,-,8
3389,29,0,DCDC,conjunction,1,Higher degree,negative,529295,1648537805768,1648537276473,female,images/card_070.png,"German, English, Norwegian, Spanish",,,positive,841,-,-,9
3389,29,0,DCDC,conjunction,30,Higher degree,negative,529295,1648537805768,1648537276473,female,images/card_096.png,"German, English, Norwegian, Spanish",,,negative,1936,-,-,10
3389,29,0,DCDC,conjunction,30,Higher degree,negative,529295,1648537805768,1648537276473,female,images/card_093.png,"German, English, Norwegian, Spanish",,,negative,1775,-,-,11
3389,29,0,DCDC,conjunction,30,Higher degree,positive,529295,1648537805768,1648537276473,female,images/card_032.png,"German, English, Norwegian, Spanish",,,positive,1066,T,green,12
3389,29,0,DCDC,conjunction,15,Higher degree,negative,529295,1648537805768,1648537276473,female,images/card_085.png,"German, English, Norwegian, Spanish",,,negative,1258,-,-,13
3389,29,0,DCDC,conjunction,1,Higher degree,negative,529295,1648537805768,1648537276473,female,images/card_069.png,"German, English, Norwegian, Spanish",,,negative,947,-,-,14
3389,29,0,DCDC,conjunction,1,Higher degree,positive,529295,1648537805768,1648537276473,female,images/card_007.png,"German, English, Norwegian, Spanish",,,positive,712,T,green,15
3389,29,0,DCDC,conjunction,1,Higher degree,positive,529295,1648537805768,1648537276473,female,images/card_006.png,"German, English, Norwegian, Spanish",,,positive,732,T,green,16
3389,29,0,DCDC,conjunction,1,Higher degree,negative,529295,1648537805768,1648537276473,female,images/card_072.png,"German, English, Norwegian, Spanish",,,negative,695,-,-,17
3389,29,0,DCDC,conjunction,15,Higher degree,negative,529295,1648537805768,1648537276473,female,images/card_086.png,"German, English, Norwegian, Spanish",,,negative,1028,-,-,18
3389,29,0,DCDC,conjunction,30,Higher degree,negative,529295,1648537805768,1648537276473,female,images/card_095.png,"German, English, Norwegian, Spanish",,,negative,1489,-,-,19
3389,29,0,DCDC,conjunction,15,Higher degree,negative,529295,1648537805768,1648537276473,female,images/card_087.png,"German, English, Norwegian, Spanish",,,negative,1232,-,-,20
3389,29,0,DCDC,conjunction,1,Higher degree,positive,529295,1648537805768,1648537276473,female,images/card_008.png,"German, English, Norwegian, Spanish",,,positive,771,T,green,21
3389,29,0,DCDC,conjunction,15,Higher degree,positive,529295,1648537805768,1648537276473,female,images/card_022.png,"German, English, Norwegian, Spanish",,,positive,969,T,green,22
3389,29,0,DCDC,conjunction,5,Higher degree,negative,529295,1648537805768,1648537276473,female,images/card_077.png,"German, English, Norwegian, Spanish",,,negative,919,-,-,23
3389,29,0,DCDC,conjunction,5,Higher degree,positive,529295,1648537805768,1648537276473,female,images/card_016.png,"German, English, Norwegian, Spanish",,,positive,778,T,green,24
3389,29,0,DCDC,conjunction,5,Higher degree,negative,529295,1648537805768,1648537276473,female,images/card_080.png,"German, English, Norwegian, Spanish",,,negative,942,-,-,25
3389,29,0,DCDC,conjunction,30,Higher degree,positive,529295,1648537805768,1648537276473,female,images/card_030.png,"German, English, Norwegian, Spanish",,,positive,1159,T,green,26
3389,29,0,DCDC,conjunction,15,Higher degree,negative,529295,1648537805768,1648537276473,female,images/card_088.png,"German, English, Norwegian, Spanish",,,negative,1161,-,-,27
3389,29,0,DCDC,conjunction,30,Higher degree,negative,529295,1648537805768,1648537276473,female,images/card_094.png,"German, English, Norwegian, Spanish",,,negative,1319,-,-,28
3389,29,0,DCDC,conjunction,15,Higher degree,positive,529295,1648537805768,1648537276473,female,images/card_023.png,"German, English, Norwegian, Spanish",,,positive,1447,T,green,29
3389,29,0,DCDC,conjunction,1,Higher degree,positive,529295,1648537805768,1648537276473,female,images/card_005.png,"German, English, Norwegian, Spanish",,,positive,740,T,green,30
3389,29,0,DCDC,conjunction,5,Higher degree,positive,529295,1648537805768,1648537276473,female,images/card_013.png,"German, English, Norwegian, Spanish",,,positive,730,T,green,31
3389,29,1,DCDC,feature,1,Higher degree,negative,529295,1648537805768,1648537276473,female,images/card_104.png,"German, English, Norwegian, Spanish",,,negative,1180,-,-,0
3389,29,1,DCDC,feature,30,Higher degree,positive,529295,1648537805768,1648537276473,female,images/card_040.png,"German, English, Norwegian, Spanish",,,positive,901,X,blue,1
3389,29,1,DCDC,feature,1,Higher degree,positive,529295,1648537805768,1648537276473,female,images/card_058.png,"German, English, Norwegian, Spanish",,,positive,670,S,green,2
3389,29,1,DCDC,feature,5,Higher degree,positive,529295,1648537805768,1648537276473,female,images/card_043.png,"German, English, Norwegian, Spanish",,,positive,799,T,blue,3
3389,29,1,DCDC,feature,1,Higher degree,negative,529295,1648537805768,1648537276473,female,images/card_101.png,"German, English, Norwegian, Spanish",,,negative,808,-,-,4
3389,29,1,DCDC,feature,30,Higher degree,negative,529295,1648537805768,1648537276473,female,images/card_126.png,"German, English, Norwegian, Spanish",,,negative,1036,-,-,5
3389,29,1,DCDC,feature,5,Higher degree,positive,529295,1648537805768,1648537276473,female,images/card_060.png,"German, English, Norwegian, Spanish",,,positive,1105,S,green,6
3389,29,1,DCDC,feature,30,Higher degree,negative,529295,1648537805768,1648537276473,female,images/card_125.png,"German, English, Norwegian, Spanish",,,negative,984,-,-,7
3389,29,1,DCDC,feature,5,Higher degree,negative,529295,1648537805768,1648537276473,female,images/card_110.png,"German, English, Norwegian, Spanish",,,negative,880,-,-,8
3389,29,1,DCDC,feature,15,Higher degree,positive,529295,1648537805768,1648537276473,female,images/card_054.png,"German, English, Norwegian, Spanish",,,positive,920,S,brown,9
3389,29,1,DCDC,feature,5,Higher degree,positive,529295,1648537805768,1648537276473,female,images/card_052.png,"German, English, Norwegian, Spanish",,,positive,924,S,brown,10
3389,29,1,DCDC,feature,1,Higher degree,negative,529295,1648537805768,1648537276473,female,images/card_102.png,"German, English, Norwegian, Spanish",,,negative,859,-,-,11
3389,29,1,DCDC,feature,1,Higher degree,negative,529295,1648537805768,1648537276473,female,images/card_103.png,"German, English, Norwegian, Spanish",,,negative,800,-,-,12
3389,29,1,DCDC,feature,1,Higher degree,positive,529295,1648537805768,1648537276473,female,images/card_050.png,"German, English, Norwegian, Spanish",,,positive,752,S,brown,13
3389,29,1,DCDC,feature,1,Higher degree,positive,529295,1648537805768,1648537276473,female,images/card_041.png,"German, English, Norwegian, Spanish",,,positive,951,T,blue,14
3389,29,1,DCDC,feature,15,Higher degree,positive,529295,1648537805768,1648537276473,female,images/card_062.png,"German, English, Norwegian, Spanish",,,positive,1098,S,green,15
3389,29,1,DCDC,feature,5,Higher degree,negative,529295,1648537805768,1648537276473,female,images/card_111.png,"German, English, Norwegian, Spanish",,,negative,952,-,-,16
3389,29,1,DCDC,feature,15,Higher degree,negative,529295,1648537805768,1648537276473,female,images/card_120.png,"German, English, Norwegian, Spanish",,,negative,1130,-,-,17
3389,29,1,DCDC,feature,15,Higher degree,positive,529295,1648537805768,1648537276473,female,images/card_045.png,"German, English, Norwegian, Spanish",,,positive,765,T,blue,18
3389,29,1,DCDC,feature,15,Higher degree,negative,529295,1648537805768,1648537276473,female,images/card_119.png,"German, English, Norwegian, Spanish",,,negative,1015,-,-,19
3389,29,1,DCDC,feature,30,Higher degree,negative,529295,1648537805768,1648537276473,female,images/card_128.png,"German, English, Norwegian, Spanish",,,negative,1139,-,-,20
3389,29,1,DCDC,feature,30,Higher degree,negative,529295,1648537805768,1648537276473,female,images/card_127.png,"German, English, Norwegian, Spanish",,,negative,1410,-,-,21
3389,29,1,DCDC,feature,5,Higher degree,negative,529295,1648537805768,1648537276473,female,images/card_112.png,"German, English, Norwegian, Spanish",,,negative,909,-,-,22
3389,29,1,DCDC,feature,15,Higher degree,negative,529295,1648537805768,1648537276473,female,images/card_119.png,"German, English, Norwegian, Spanish",,,negative,564,-,-,23
3389,29,1,DCDC,feature,5,Higher degree,positive,529295,1648537805768,1648537276473,female,images/card_036.png,"German, English, Norwegian, Spanish",,,positive,906,X,blue,24
3389,29,1,DCDC,feature,30,Higher degree,positive,529295,1648537805768,1648537276473,female,images/card_056.png,"German, English, Norwegian, Spanish",,,positive,849,S,brown,25
3389,29,1,DCDC,feature,30,Higher degree,positive,529295,1648537805768,1648537276473,female,images/card_064.png,"German, English, Norwegian, Spanish",,,positive,848,S,green,26
3389,29,1,DCDC,feature,15,Higher degree,positive,529295,1648537805768,1648537276473,female,images/card_038.png,"German, English, Norwegian, Spanish",,,positive,850,X,blue,27
3389,29,1,DCDC,feature,30,Higher degree,positive,529295,1648537805768,1648537276473,female,images/card_047.png,"German, English, Norwegian, Spanish",,,positive,696,T,blue,28
3389,29,1,DCDC,feature,15,Higher degree,negative,529295,1648537805768,1648537276473,female,images/card_120.png,"German, English, Norwegian, Spanish",,,negative,722,-,-,29
3389,29,1,DCDC,feature,5,Higher degree,negative,529295,1648537805768,1648537276473,female,images/card_109.png,"German, English, Norwegian, Spanish",,,negative,873,-,-,30
3389,29,1,DCDC,feature,1,Higher degree,positive,529295,1648537805768,1648537276473,female,images/card_034.png,"German, English, Norwegian, Spanish",,,positive,798,X,blue,31
3389,29,2,DCDC,conjunction,1,Higher degree,negative,529295,1648537805768,1648537276473,female,images/card_067.png,"German, English, Norwegian, Spanish",,,negative,1125,-,-,0
3389,29,2,DCDC,conjunction,30,Higher degree,negative,529295,1648537805768,1648537276473,female,images/card_092.png,"German, English, Norwegian, Spanish",,,negative,1283,-,-,1
3389,29,2,DCDC,conjunction,15,Higher degree,negative,529295,1648537805768,1648537276473,female,images/card_083.png,"German, English, Norwegian, Spanish",,,negative,1245,-,-,2
3389,29,2,DCDC,conjunction,15,Higher degree,negative,529295,1648537805768,1648537276473,female,images/card_081.png,"German, English, Norwegian, Spanish",,,negative,1425,-,-,3
3389,29,2,DCDC,conjunction,15,Higher degree,positive,529295,1648537805768,1648537276473,female,images/card_017.png,"German, English, Norwegian, Spanish",,,positive,1000,T,green,4
3389,29,2,DCDC,conjunction,30,Higher degree,negative,529295,1648537805768,1648537276473,female,images/card_090.png,"German, English, Norwegian, Spanish",,,negative,1241,-,-,5
3389,29,2,DCDC,conjunction,5,Higher degree,positive,529295,1648537805768,1648537276473,female,images/card_009.png,"German, English, Norwegian, Spanish",,,positive,785,T,green,6
3389,29,2,DCDC,conjunction,5,Higher degree,positive,529295,1648537805768,1648537276473,female,images/card_011.png,"German, English, Norwegian, Spanish",,,positive,827,T,green,7
3389,29,2,DCDC,conjunction,15,Higher degree,positive,529295,1648537805768,1648537276473,female,images/card_019.png,"German, English, Norwegian, Spanish",,,positive,846,T,green,8
3389,29,2,DCDC,conjunction,1,Higher degree,positive,529295,1648537805768,1648537276473,female,images/card_004.png,"German, English, Norwegian, Spanish",,,positive,716,T,green,9
3389,29,2,DCDC,conjunction,1,Higher degree,positive,529295,1648537805768,1648537276473,female,images/card_001.png,"German, English, Norwegian, Spanish",,,positive,793,T,green,10
3389,29,2,DCDC,conjunction,5,Higher degree,negative,529295,1648537805768,1648537276473,female,images/card_073.png,"German, English, Norwegian, Spanish",,,negative,916,-,-,11
3389,29,2,DCDC,conjunction,1,Higher degree,negative,529295,1648537805768,1648537276473,female,images/card_065.png,"German, English, Norwegian, Spanish",,,positive,750,-,-,12
3389,29,2,DCDC,conjunction,30,Higher degree,negative,529295,1648537805768,1648537276473,female,images/card_089.png,"German, English, Norwegian, Spanish",,,negative,1723,-,-,13
3389,29,2,DCDC,conjunction,1,Higher degree,positive,529295,1648537805768,1648537276473,female,images/card_002.png,"German, English, Norwegian, Spanish",,,positive,756,T,green,14
3389,29,2,DCDC,conjunction,5,Higher degree,negative,529295,1648537805768,1648537276473,female,images/card_075.png,"German, English, Norwegian, Spanish",,,negative,926,-,-,15
3389,29,2,DCDC,conjunction,15,Higher degree,positive,529295,1648537805768,1648537276473,female,images/card_020.png,"German, English, Norwegian, Spanish",,,positive,1096,T,green,16
3389,29,2,DCDC,conjunction,30,Higher degree,negative,529295,1648537805768,1648537276473,female,images/card_091.png,"German, English, Norwegian, Spanish",,,negative,1455,-,-,17
3389,29,2,DCDC,conjunction,30,Higher degree,positive,529295,1648537805768,1648537276473,female,images/card_028.png,"German, English, Norwegian, Spanish",,,positive,1025,T,green,18
3389,29,2,DCDC,conjunction,5,Higher degree,positive,529295,1648537805768,1648537276473,female,images/card_012.png,"German, English, Norwegian, Spanish",,,positive,849,T,green,19
3389,29,2,DCDC,conjunction,1,Higher degree,negative,529295,1648537805768,1648537276473,female,images/card_066.png,"German, English, Norwegian, Spanish",,,negative,833,-,-,20
3389,29,2,DCDC,conjunction,1,Higher degree,negative,529295,1648537805768,1648537276473,female,images/card_068.png,"German, English, Norwegian, Spanish",,,negative,657,-,-,21
3389,29,2,DCDC,conjunction,5,Higher degree,negative,529295,1648537805768,1648537276473,female,images/card_074.png,"German, English, Norwegian, Spanish",,,negative,806,-,-,22
3389,29,2,DCDC,conjunction,30,Higher degree,positive,529295,1648537805768,1648537276473,female,images/card_025.png,"German, English, Norwegian, Spanish",,,positive,953,T,green,23
3389,29,2,DCDC,conjunction,1,Higher degree,positive,529295,1648537805768,1648537276473,female,images/card_003.png,"German, English, Norwegian, Spanish",,,positive,713,T,green,24
3389,29,2,DCDC,conjunction,30,Higher degree,positive,529295,1648537805768,1648537276473,female,images/card_026.png,"German, English, Norwegian, Spanish",,,positive,753,T,green,25
3389,29,2,DCDC,conjunction,5,Higher degree,positive,529295,1648537805768,1648537276473,female,images/card_010.png,"German, English, Norwegian, Spanish",,,positive,870,T,green,26
3389,29,2,DCDC,conjunction,30,Higher degree,positive,529295,1648537805768,1648537276473,female,images/card_027.png,"German, English, Norwegian, Spanish",,,negative,1024,T,green,27
3389,29,2,DCDC,conjunction,15,Higher degree,positive,529295,1648537805768,1648537276473,female,images/card_018.png,"German, English, Norwegian, Spanish",,,positive,846,T,green,28
3389,29,2,DCDC,conjunction,15,Higher degree,negative,529295,1648537805768,1648537276473,female,images/card_084.png,"German, English, Norwegian, Spanish",,,negative,1068,-,-,29
3389,29,2,DCDC,conjunction,5,Higher degree,negative,529295,1648537805768,1648537276473,female,images/card_076.png,"German, English, Norwegian, Spanish",,,negative,832,-,,30
3389,29,2,DCDC,conjunction,15,Higher degree,negative,529295,1648537805768,1648537276473,female,images/card_082.png,"German, English, Norwegian, Spanish",,,negative,1422,-,-,31
3389,29,3,DCDC,feature,30,Higher degree,negative,529295,1648537805768,1648537276473,female,images/card_121.png,"German, English, Norwegian, Spanish",,,negative,950,-,-,0
3389,29,3,DCDC,feature,15,Higher degree,positive,529295,1648537805768,1648537276473,female,images/card_037.png,"German, English, Norwegian, Spanish",,,positive,657,X,blue,1
3389,29,3,DCDC,feature,15,Higher degree,negative,529295,1648537805768,1648537276473,female,images/card_116.png,"German, English, Norwegian, Spanish",,,negative,1065,-,-,2
3389,29,3,DCDC,feature,1,Higher degree,negative,529295,1648537805768,1648537276473,female,images/card_100.png,"German, English, Norwegian, Spanish",,,negative,781,-,-,3
3389,29,3,DCDC,feature,5,Higher degree,negative,529295,1648537805768,1648537276473,female,images/card_107.png,"German, English, Norwegian, Spanish",,,negative,715,-,-,4
3389,29,3,DCDC,feature,1,Higher degree,negative,529295,1648537805768,1648537276473,female,images/card_098.png,"German, English, Norwegian, Spanish",,,negative,660,-,-,5
3389,29,3,DCDC,feature,5,Higher degree,negative,529295,1648537805768,1648537276473,female,images/card_106.png,"German, English, Norwegian, Spanish",,,negative,711,-,-,6
3389,29,3,DCDC,feature,5,Higher degree,positive,529295,1648537805768,1648537276473,female,images/card_043.png,"German, English, Norwegian, Spanish",,,negative,580,T,blue,7
3389,29,3,DCDC,feature,1,Higher degree,positive,529295,1648537805768,1648537276473,female,images/card_033.png,"German, English, Norwegian, Spanish",,,positive,598,X,blue,8
3389,29,3,DCDC,feature,15,Higher degree,positive,529295,1648537805768,1648537276473,female,images/card_061.png,"German, English, Norwegian, Spanish",,,positive,694,S,green,9
3389,29,3,DCDC,feature,5,Higher degree,positive,529295,1648537805768,1648537276473,female,images/card_035.png,"German, English, Norwegian, Spanish",,,positive,818,X,blue,10
3389,29,3,DCDC,feature,5,Higher degree,positive,529295,1648537805768,1648537276473,female,images/card_051.png,"German, English, Norwegian, Spanish",,,positive,824,S,brown,11
3389,29,3,DCDC,feature,15,Higher degree,negative,529295,1648537805768,1648537276473,female,images/card_115.png,"German, English, Norwegian, Spanish",,,negative,828,-,-,12
3389,29,3,DCDC,feature,5,Higher degree,positive,529295,1648537805768,1648537276473,female,images/card_059.png,"German, English, Norwegian, Spanish",,,positive,792,S,green,13
3389,29,3,DCDC,feature,30,Higher degree,negative,529295,1648537805768,1648537276473,female,images/card_123.png,"German, English, Norwegian, Spanish",,,negative,1193,-,-,14
3389,29,3,DCDC,feature,30,Higher degree,positive,529295,1648537805768,1648537276473,female,images/card_063.png,"German, English, Norwegian, Spanish",,,positive,644,S,green,15
3389,29,3,DCDC,feature,15,Higher degree,positive,529295,1648537805768,1648537276473,female,images/card_045.png,"German, English, Norwegian, Spanish",,,positive,513,T,blue,16
3389,29,3,DCDC,feature,30,Higher degree,positive,529295,1648537805768,1648537276473,female,images/card_055.png,"German, English, Norwegian, Spanish",,,positive,712,S,brown,17
3389,29,3,DCDC,feature,15,Higher degree,positive,529295,1648537805768,1648537276473,female,images/card_053.png,"German, English, Norwegian, Spanish",,,positive,695,S,brown,18
3389,29,3,DCDC,feature,1,Higher degree,negative,529295,1648537805768,1648537276473,female,images/card_099.png,"German, English, Norwegian, Spanish",,,negative,628,-,-,19
3389,29,3,DCDC,feature,1,Higher degree,positive,529295,1648537805768,1648537276473,female,images/card_041.png,"German, English, Norwegian, Spanish",,,positive,564,T,blue,20
3389,29,3,DCDC,feature,30,Higher degree,negative,529295,1648537805768,1648537276473,female,images/card_122.png,"German, English, Norwegian, Spanish",,,negative,763,-,-,21
3389,29,3,DCDC,feature,30,Higher degree,positive,529295,1648537805768,1648537276473,female,images/card_048.png,"German, English, Norwegian, Spanish",,,positive,725,T,blue,22
3389,29,3,DCDC,feature,1,Higher degree,positive,529295,1648537805768,1648537276473,female,images/card_049.png,"German, English, Norwegian, Spanish",,,positive,663,S,brown,23
3389,29,3,DCDC,feature,5,Higher degree,negative,529295,1648537805768,1648537276473,female,images/card_108.png,"German, English, Norwegian, Spanish",,,negative,749,-,-,24
3389,29,3,DCDC,feature,1,Higher degree,negative,529295,1648537805768,1648537276473,female,images/card_097.png,"German, English, Norwegian, Spanish",,,negative,714,-,-,25
3389,29,3,DCDC,feature,1,Higher degree,positive,529295,1648537805768,1648537276473,female,images/card_057.png,"German, English, Norwegian, Spanish",,,positive,727,S,green,26
3389,29,3,DCDC,feature,15,Higher degree,negative,529295,1648537805768,1648537276473,female,images/card_113.png,"German, English, Norwegian, Spanish",,,negative,684,-,-,27
3389,29,3,DCDC,feature,15,Higher degree,negative,529295,1648537805768,1648537276473,female,images/card_114.png,"German, English, Norwegian, Spanish",,,negative,730,-,-,28
3389,29,3,DCDC,feature,30,Higher degree,negative,529295,1648537805768,1648537276473,female,images/card_124.png,"German, English, Norwegian, Spanish",,,negative,769,-,-,29
3389,29,3,DCDC,feature,30,Higher degree,positive,529295,1648537805768,1648537276473,female,images/card_039.png,"German, English, Norwegian, Spanish",,,positive,764,X,blue,30
3389,29,3,DCDC,feature,5,Higher degree,negative,529295,1648537805768,1648537276473,female,images/card_105.png,"German, English, Norwegian, Spanish",,,negative,688,-,-,31
3388,28,0,CDCD,feature,5,Graduated Highschool,negative,837720,1648520202537,1648519364817,male,images/card_108.png,German,,,negative,3932,-,-,0
3388,28,0,CDCD,feature,15,Graduated Highschool,positive,837720,1648520202537,1648519364817,male,images/card_061.png,German,,,negative,1441,S,green,1
3388,28,0,CDCD,feature,30,Graduated Highschool,negative,837720,1648520202537,1648519364817,male,images/card_123.png,German,,,negative,3282,-,-,2
3388,28,0,CDCD,feature,15,Graduated Highschool,negative,837720,1648520202537,1648519364817,male,images/card_114.png,German,,,negative,2133,-,-,3
3388,28,0,CDCD,feature,1,Graduated Highschool,negative,837720,1648520202537,1648519364817,male,images/card_100.png,German,,,negative,1105,-,-,4
3388,28,0,CDCD,feature,30,Graduated Highschool,positive,837720,1648520202537,1648519364817,male,images/card_048.png,German,,,positive,1327,T,blue,5
3388,28,0,CDCD,feature,5,Graduated Highschool,negative,837720,1648520202537,1648519364817,male,images/card_105.png,German,,,negative,984,-,-,6
3388,28,0,CDCD,feature,30,Graduated Highschool,positive,837720,1648520202537,1648519364817,male,images/card_039.png,German,,,positive,914,X,blue,7
3388,28,0,CDCD,feature,5,Graduated Highschool,negative,837720,1648520202537,1648519364817,male,images/card_107.png,German,,,negative,969,-,-,8
3388,28,0,CDCD,feature,5,Graduated Highschool,positive,837720,1648520202537,1648519364817,male,images/card_051.png,German,,,positive,1144,S,brown,9
3388,28,0,CDCD,feature,5,Graduated Highschool,negative,837720,1648520202537,1648519364817,male,images/card_106.png,German,,,negative,918,-,-,10
3388,28,0,CDCD,feature,30,Graduated Highschool,positive,837720,1648520202537,1648519364817,male,images/card_063.png,German,,,positive,962,S,green,11
3388,28,0,CDCD,feature,15,Graduated Highschool,negative,837720,1648520202537,1648519364817,male,images/card_113.png,German,,,negative,1367,-,-,12
3388,28,0,CDCD,feature,1,Graduated Highschool,positive,837720,1648520202537,1648519364817,male,images/card_049.png,German,,,positive,810,S,brown,13
3388,28,0,CDCD,feature,15,Graduated Highschool,positive,837720,1648520202537,1648519364817,male,images/card_053.png,German,,,positive,895,S,brown,14
3388,28,0,CDCD,feature,1,Graduated Highschool,negative,837720,1648520202537,1648519364817,male,images/card_099.png,German,,,negative,1054,-,-,15
3388,28,0,CDCD,feature,15,Graduated Highschool,negative,837720,1648520202537,1648519364817,male,images/card_115.png,German,,,negative,1273,-,-,16
3388,28,0,CDCD,feature,30,Graduated Highschool,negative,837720,1648520202537,1648519364817,male,images/card_122.png,German,,,negative,2307,-,-,17
3388,28,0,CDCD,feature,15,Graduated Highschool,positive,837720,1648520202537,1648519364817,male,images/card_037.png,German,,,positive,813,X,blue,18
3388,28,0,CDCD,feature,5,Graduated Highschool,positive,837720,1648520202537,1648519364817,male,images/card_059.png,German,,,negative,826,S,green,19
3388,28,0,CDCD,feature,30,Graduated Highschool,negative,837720,1648520202537,1648519364817,male,images/card_124.png,German,,,negative,2992,-,-,20
3388,28,0,CDCD,feature,1,Graduated Highschool,positive,837720,1648520202537,1648519364817,male,images/card_041.png,German,,,positive,934,T,blue,21
3388,28,0,CDCD,feature,15,Graduated Highschool,negative,837720,1648520202537,1648519364817,male,images/card_116.png,German,,,negative,10290,-,-,22
3388,28,0,CDCD,feature,5,Graduated Highschool,positive,837720,1648520202537,1648519364817,male,images/card_043.png,German,,,positive,890,T,blue,23
3388,28,0,CDCD,feature,1,Graduated Highschool,positive,837720,1648520202537,1648519364817,male,images/card_057.png,German,,,positive,822,S,green,24
3388,28,0,CDCD,feature,1,Graduated Highschool,negative,837720,1648520202537,1648519364817,male,images/card_098.png,German,,,negative,1124,-,-,25
3388,28,0,CDCD,feature,30,Graduated Highschool,positive,837720,1648520202537,1648519364817,male,images/card_055.png,German,,,positive,851,S,brown,26
3388,28,0,CDCD,feature,1,Graduated Highschool,positive,837720,1648520202537,1648519364817,male,images/card_033.png,German,,,positive,924,X,blue,27
3388,28,0,CDCD,feature,5,Graduated Highschool,positive,837720,1648520202537,1648519364817,male,images/card_035.png,German,,,positive,819,X,blue,28
3388,28,0,CDCD,feature,15,Graduated Highschool,positive,837720,1648520202537,1648519364817,male,images/card_045.png,German,,,positive,885,T,blue,29
3388,28,0,CDCD,feature,1,Graduated Highschool,negative,837720,1648520202537,1648519364817,male,images/card_097.png,German,,,negative,840,-,-,30
3388,28,0,CDCD,feature,30,Graduated Highschool,negative,837720,1648520202537,1648519364817,male,images/card_121.png,German,,,negative,2211,-,-,31
3388,28,1,CDCD,conjunction,15,Graduated Highschool,positive,837720,1648520202537,1648519364817,male,images/card_024.png,German,,,positive,2138,T,green,0
3388,28,1,CDCD,conjunction,15,Graduated Highschool,positive,837720,1648520202537,1648519364817,male,images/card_021.png,German,,,negative,2630,T,green,1
3388,28,1,CDCD,conjunction,5,Graduated Highschool,negative,837720,1648520202537,1648519364817,male,images/card_078.png,German,,,negative,1620,-,-,2
3388,28,1,CDCD,conjunction,15,Graduated Highschool,negative,837720,1648520202537,1648519364817,male,images/card_087.png,German,,,negative,2280,-,-,3
3388,28,1,CDCD,conjunction,5,Graduated Highschool,positive,837720,1648520202537,1648519364817,male,images/card_016.png,German,,,positive,1066,T,green,4
3388,28,1,CDCD,conjunction,5,Graduated Highschool,negative,837720,1648520202537,1648519364817,male,images/card_077.png,German,,,negative,1217,-,-,5
3388,28,1,CDCD,conjunction,30,Graduated Highschool,positive,837720,1648520202537,1648519364817,male,images/card_029.png,German,,,positive,2109,T,green,6
3388,28,1,CDCD,conjunction,15,Graduated Highschool,negative,837720,1648520202537,1648519364817,male,images/card_085.png,German,,,negative,1810,-,-,7
3388,28,1,CDCD,conjunction,1,Graduated Highschool,negative,837720,1648520202537,1648519364817,male,images/card_069.png,German,,,negative,949,-,-,8
3388,28,1,CDCD,conjunction,15,Graduated Highschool,negative,837720,1648520202537,1648519364817,male,images/card_088.png,German,,,negative,1836,-,-,9
3388,28,1,CDCD,conjunction,5,Graduated Highschool,positive,837720,1648520202537,1648519364817,male,images/card_014.png,German,,,positive,833,T,green,10
3388,28,1,CDCD,conjunction,5,Graduated Highschool,negative,837720,1648520202537,1648519364817,male,images/card_080.png,German,,,negative,1249,-,-,11
3388,28,1,CDCD,conjunction,5,Graduated Highschool,positive,837720,1648520202537,1648519364817,male,images/card_013.png,German,,,positive,783,T,green,12
3388,28,1,CDCD,conjunction,30,Graduated Highschool,negative,837720,1648520202537,1648519364817,male,images/card_095.png,German,,,negative,1786,-,-,13
3388,28,1,CDCD,conjunction,5,Graduated Highschool,negative,837720,1648520202537,1648519364817,male,images/card_079.png,German,,,negative,974,-,-,14
3388,28,1,CDCD,conjunction,30,Graduated Highschool,negative,837720,1648520202537,1648519364817,male,images/card_093.png,German,,,negative,1624,-,-,15
3388,28,1,CDCD,conjunction,30,Graduated Highschool,positive,837720,1648520202537,1648519364817,male,images/card_030.png,German,,,positive,1545,T,green,16
3388,28,1,CDCD,conjunction,1,Graduated Highschool,negative,837720,1648520202537,1648519364817,male,images/card_070.png,German,,,negative,856,-,-,17
3388,28,1,CDCD,conjunction,1,Graduated Highschool,positive,837720,1648520202537,1648519364817,male,images/card_008.png,German,,,positive,787,T,green,18
3388,28,1,CDCD,conjunction,1,Graduated Highschool,positive,837720,1648520202537,1648519364817,male,images/card_006.png,German,,,positive,764,T,green,19
3388,28,1,CDCD,conjunction,30,Graduated Highschool,negative,837720,1648520202537,1648519364817,male,images/card_096.png,German,,,negative,1678,-,-,20
3388,28,1,CDCD,conjunction,15,Graduated Highschool,positive,837720,1648520202537,1648519364817,male,images/card_023.png,German,,,positive,1012,T,green,21
3388,28,1,CDCD,conjunction,30,Graduated Highschool,positive,837720,1648520202537,1648519364817,male,images/card_032.png,German,,,positive,1470,T,green,22
3388,28,1,CDCD,conjunction,30,Graduated Highschool,positive,837720,1648520202537,1648519364817,male,images/card_031.png,German,,,positive,2102,T,green,23
3388,28,1,CDCD,conjunction,1,Graduated Highschool,negative,837720,1648520202537,1648519364817,male,images/card_071.png,German,,,negative,835,-,-,24
3388,28,1,CDCD,conjunction,1,Graduated Highschool,negative,837720,1648520202537,1648519364817,male,images/card_072.png,German,,,negative,799,-,-,25
3388,28,1,CDCD,conjunction,5,Graduated Highschool,positive,837720,1648520202537,1648519364817,male,images/card_015.png,German,,,positive,880,T,green,26
3388,28,1,CDCD,conjunction,1,Graduated Highschool,positive,837720,1648520202537,1648519364817,male,images/card_007.png,German,,,positive,672,T,green,27
3388,28,1,CDCD,conjunction,30,Graduated Highschool,negative,837720,1648520202537,1648519364817,male,images/card_094.png,German,,,negative,2293,-,-,28
3388,28,1,CDCD,conjunction,15,Graduated Highschool,positive,837720,1648520202537,1648519364817,male,images/card_022.png,German,,,positive,1268,T,green,29
3388,28,1,CDCD,conjunction,15,Graduated Highschool,negative,837720,1648520202537,1648519364817,male,images/card_086.png,German,,,negative,1446,-,-,30
3388,28,1,CDCD,conjunction,1,Graduated Highschool,positive,837720,1648520202537,1648519364817,male,images/card_005.png,German,,,positive,724,T,green,31
3388,28,2,CDCD,feature,5,Graduated Highschool,positive,837720,1648520202537,1648519364817,male,images/card_043.png,German,,,positive,944,T,blue,0
3388,28,2,CDCD,feature,1,Graduated Highschool,negative,837720,1648520202537,1648519364817,male,images/card_103.png,German,,,negative,794,-,-,1
3388,28,2,CDCD,feature,5,Graduated Highschool,positive,837720,1648520202537,1648519364817,male,images/card_052.png,German,,,negative,1436,S,brown,2
3388,28,2,CDCD,feature,30,Graduated Highschool,positive,837720,1648520202537,1648519364817,male,images/card_056.png,German,,,positive,1947,S,brown,3
3388,28,2,CDCD,feature,5,Graduated Highschool,positive,837720,1648520202537,1648519364817,male,images/card_036.png,German,,,positive,1120,X,blue,4
3388,28,2,CDCD,feature,1,Graduated Highschool,positive,837720,1648520202537,1648519364817,male,images/card_058.png,German,,,positive,710,S,green,5
3388,28,2,CDCD,feature,15,Graduated Highschool,positive,837720,1648520202537,1648519364817,male,images/card_054.png,German,,,positive,983,S,brown,6
3388,28,2,CDCD,feature,30,Graduated Highschool,positive,837720,1648520202537,1648519364817,male,images/card_047.png,German,,,positive,783,T,blue,7
3388,28,2,CDCD,feature,30,Graduated Highschool,negative,837720,1648520202537,1648519364817,male,images/card_126.png,German,,,negative,2603,-,-,8
3388,28,2,CDCD,feature,15,Graduated Highschool,positive,837720,1648520202537,1648519364817,male,images/card_038.png,German,,,positive,993,X,blue,9
3388,28,2,CDCD,feature,15,Graduated Highschool,negative,837720,1648520202537,1648519364817,male,images/card_120.png,German,,,negative,1889,-,-,10
3388,28,2,CDCD,feature,5,Graduated Highschool,positive,837720,1648520202537,1648519364817,male,images/card_060.png,German,,,positive,879,S,green,11
3388,28,2,CDCD,feature,1,Graduated Highschool,positive,837720,1648520202537,1648519364817,male,images/card_050.png,German,,,positive,770,S,brown,12
3388,28,2,CDCD,feature,15,Graduated Highschool,negative,837720,1648520202537,1648519364817,male,images/card_119.png,German,,,negative,1762,-,-,13
3388,28,2,CDCD,feature,30,Graduated Highschool,negative,837720,1648520202537,1648519364817,male,images/card_127.png,German,,,negative,2214,-,-,14
3388,28,2,CDCD,feature,15,Graduated Highschool,positive,837720,1648520202537,1648519364817,male,images/card_045.png,German,,,positive,467,T,blue,15
3388,28,2,CDCD,feature,15,Graduated Highschool,negative,837720,1648520202537,1648519364817,male,images/card_120.png,German,,,negative,1074,-,-,16
3388,28,2,CDCD,feature,1,Graduated Highschool,negative,837720,1648520202537,1648519364817,male,images/card_102.png,German,,,negative,864,-,-,17
3388,28,2,CDCD,feature,30,Graduated Highschool,negative,837720,1648520202537,1648519364817,male,images/card_125.png,German,,,negative,2150,-,-,18
3388,28,2,CDCD,feature,1,Graduated Highschool,negative,837720,1648520202537,1648519364817,male,images/card_104.png,German,,,negative,1000,-,-,19
3388,28,2,CDCD,feature,30,Graduated Highschool,positive,837720,1648520202537,1648519364817,male,images/card_040.png,German,,,positive,694,X,blue,20
3388,28,2,CDCD,feature,5,Graduated Highschool,negative,837720,1648520202537,1648519364817,male,images/card_110.png,German,,,negative,951,-,-,21
3388,28,2,CDCD,feature,30,Graduated Highschool,positive,837720,1648520202537,1648519364817,male,images/card_064.png,German,,,positive,958,S,green,22
3388,28,2,CDCD,feature,1,Graduated Highschool,positive,837720,1648520202537,1648519364817,male,images/card_034.png,German,,,positive,712,X,blue,23
3388,28,2,CDCD,feature,5,Graduated Highschool,negative,837720,1648520202537,1648519364817,male,images/card_109.png,German,,,negative,805,-,-,24
3388,28,2,CDCD,feature,1,Graduated Highschool,positive,837720,1648520202537,1648519364817,male,images/card_041.png,German,,,positive,636,T,blue,25
3388,28,2,CDCD,feature,5,Graduated Highschool,negative,837720,1648520202537,1648519364817,male,images/card_112.png,German,,,negative,1074,-,-,26
3388,28,2,CDCD,feature,15,Graduated Highschool,positive,837720,1648520202537,1648519364817,male,images/card_062.png,German,,,positive,720,S,green,27
3388,28,2,CDCD,feature,30,Graduated Highschool,negative,837720,1648520202537,1648519364817,male,images/card_128.png,German,,,negative,1358,-,-,28
3388,28,2,CDCD,feature,1,Graduated Highschool,negative,837720,1648520202537,1648519364817,male,images/card_101.png,German,,,negative,738,-,-,29
3388,28,2,CDCD,feature,5,Graduated Highschool,negative,837720,1648520202537,1648519364817,male,images/card_111.png,German,,,negative,877,-,-,30
3388,28,2,CDCD,feature,15,Graduated Highschool,negative,837720,1648520202537,1648519364817,male,images/card_119.png,German,,,negative,1198,-,-,31
3388,28,3,CDCD,conjunction,30,Graduated Highschool,negative,837720,1648520202537,1648519364817,male,images/card_092.png,German,,,negative,3394,-,-,0
3388,28,3,CDCD,conjunction,30,Graduated Highschool,positive,837720,1648520202537,1648519364817,male,images/card_026.png,German,,,positive,2137,T,green,1
3388,28,3,CDCD,conjunction,30,Graduated Highschool,negative,837720,1648520202537,1648519364817,male,images/card_090.png,German,,,negative,2094,-,-,2
3388,28,3,CDCD,conjunction,1,Graduated Highschool,positive,837720,1648520202537,1648519364817,male,images/card_003.png,German,,,positive,818,T,green,3
3388,28,3,CDCD,conjunction,5,Graduated Highschool,positive,837720,1648520202537,1648519364817,male,images/card_011.png,German,,,positive,887,T,green,4
3388,28,3,CDCD,conjunction,15,Graduated Highschool,positive,837720,1648520202537,1648519364817,male,images/card_018.png,German,,,negative,1012,T,green,5
3388,28,3,CDCD,conjunction,1,Graduated Highschool,negative,837720,1648520202537,1648519364817,male,images/card_066.png,German,,,negative,1672,-,-,6
3388,28,3,CDCD,conjunction,5,Graduated Highschool,positive,837720,1648520202537,1648519364817,male,images/card_010.png,German,,,positive,746,T,green,7
3388,28,3,CDCD,conjunction,30,Graduated Highschool,positive,837720,1648520202537,1648519364817,male,images/card_027.png,German,,,positive,1465,T,green,8
3388,28,3,CDCD,conjunction,15,Graduated Highschool,negative,837720,1648520202537,1648519364817,male,images/card_082.png,German,,,negative,1684,-,-,9
3388,28,3,CDCD,conjunction,5,Graduated Highschool,positive,837720,1648520202537,1648519364817,male,images/card_009.png,German,,,positive,811,T,green,10
3388,28,3,CDCD,conjunction,30,Graduated Highschool,positive,837720,1648520202537,1648519364817,male,images/card_028.png,German,,,positive,1098,T,green,11
3388,28,3,CDCD,conjunction,1,Graduated Highschool,positive,837720,1648520202537,1648519364817,male,images/card_001.png,German,,,positive,677,T,green,12
3388,28,3,CDCD,conjunction,15,Graduated Highschool,positive,837720,1648520202537,1648519364817,male,images/card_020.png,German,,,positive,808,T,green,13
3388,28,3,CDCD,conjunction,30,Graduated Highschool,negative,837720,1648520202537,1648519364817,male,images/card_091.png,German,,,negative,1812,-,-,14
3388,28,3,CDCD,conjunction,1,Graduated Highschool,positive,837720,1648520202537,1648519364817,male,images/card_004.png,German,,,positive,669,T,green,15
3388,28,3,CDCD,conjunction,5,Graduated Highschool,negative,837720,1648520202537,1648519364817,male,images/card_075.png,German,,,negative,1074,-,-,16
3388,28,3,CDCD,conjunction,15,Graduated Highschool,positive,837720,1648520202537,1648519364817,male,images/card_019.png,German,,,positive,1372,T,green,17
3388,28,3,CDCD,conjunction,30,Graduated Highschool,negative,837720,1648520202537,1648519364817,male,images/card_089.png,German,,,negative,1518,-,-,18
3388,28,3,CDCD,conjunction,30,Graduated Highschool,positive,837720,1648520202537,1648519364817,male,images/card_025.png,German,,,positive,1221,T,green,19
3388,28,3,CDCD,conjunction,1,Graduated Highschool,negative,837720,1648520202537,1648519364817,male,images/card_068.png,German,,,negative,875,-,-,20
3388,28,3,CDCD,conjunction,1,Graduated Highschool,positive,837720,1648520202537,1648519364817,male,images/card_002.png,German,,,positive,680,T,green,21
3388,28,3,CDCD,conjunction,1,Graduated Highschool,negative,837720,1648520202537,1648519364817,male,images/card_065.png,German,,,negative,737,-,-,22
3388,28,3,CDCD,conjunction,15,Graduated Highschool,positive,837720,1648520202537,1648519364817,male,images/card_017.png,German,,,positive,695,T,green,23
3388,28,3,CDCD,conjunction,15,Graduated Highschool,negative,837720,1648520202537,1648519364817,male,images/card_081.png,German,,,negative,1252,-,-,24
3388,28,3,CDCD,conjunction,1,Graduated Highschool,negative,837720,1648520202537,1648519364817,male,images/card_067.png,German,,,negative,858,-,-,25
3388,28,3,CDCD,conjunction,5,Graduated Highschool,negative,837720,1648520202537,1648519364817,male,images/card_076.png,German,,,negative,1000,-,,26
3388,28,3,CDCD,conjunction,5,Graduated Highschool,positive,837720,1648520202537,1648519364817,male,images/card_012.png,German,,,positive,1006,T,green,27
3388,28,3,CDCD,conjunction,5,Graduated Highschool,negative,837720,1648520202537,1648519364817,male,images/card_073.png,German,,,negative,889,-,-,28
3388,28,3,CDCD,conjunction,5,Graduated Highschool,negative,837720,1648520202537,1648519364817,male,images/card_074.png,German,,,negative,893,-,-,29
3388,28,3,CDCD,conjunction,15,Graduated Highschool,negative,837720,1648520202537,1648519364817,male,images/card_083.png,German,,,negative,1088,-,-,30
3388,28,3,CDCD,conjunction,15,Graduated Highschool,negative,837720,1648520202537,1648519364817,male,images/card_084.png,German,,,negative,1182,-,-,31
3387,25,0,CDCD,feature,1,Graduated College,positive,681302,1648497927575,1648497246273,male,images/card_058.png,german,,,positive,1691,S,green,0
3387,25,0,CDCD,feature,15,Graduated College,negative,681302,1648497927575,1648497246273,male,images/card_119.png,german,,,negative,1953,-,-,1
3387,25,0,CDCD,feature,5,Graduated College,positive,681302,1648497927575,1648497246273,male,images/card_043.png,german,,,positive,1190,T,blue,2
3387,25,0,CDCD,feature,15,Graduated College,positive,681302,1648497927575,1648497246273,male,images/card_062.png,german,,,positive,871,S,green,3
3387,25,0,CDCD,feature,1,Graduated College,negative,681302,1648497927575,1648497246273,male,images/card_102.png,german,,,negative,825,-,-,4
3387,25,0,CDCD,feature,30,Graduated College,positive,681302,1648497927575,1648497246273,male,images/card_056.png,german,,,positive,1035,S,brown,5
3387,25,0,CDCD,feature,1,Graduated College,positive,681302,1648497927575,1648497246273,male,images/card_034.png,german,,,positive,898,X,blue,6
